timestamp,accel_x,accel_y,accel_z,gyro_x,gyro_y,gyro_z,mag_x,mag_y,mag_z,,smooth_accel_x,smooth_accel_y,smooth_accel_z,smooth_gyro_x,smooth_gyro_y,smooth_gyro_z,smooth_mag_x,smooth_mag_y,smooth_mag_z
8.05E+12,-0.8831787,1.5082397,9.011398,-0.40220642,0.077041626,-0.19204712,,,,,-0.8831787,1.5082397,9.011398,-0.40220642,0.077041626,-0.19204712,0,0,0
8.05E+12,-0.8596344,1.4969177,9.453842,0,0,0,0,0,0,,-0.87140655,1.5025787,9.23262,-0.20110321,0.038520813,-0.09602356,0,0,0
8.05E+12,-0.83891296,1.5108337,9.847977,-0.39190674,-0.110809326,-0.12762451,0,0,0,,-0.855159755,1.5067062,9.5402985,-0.296504975,-0.036144257,-0.111824035,0,0,0
8.05E+12,-0.7720337,1.5320892,10.237396,-0.3499756,-0.206604,-0.09901428,0,0,0,,-0.813596728,1.5193977,9.88884725,-0.323240288,-0.121374128,-0.105419158,0,0,0
8.05E+12,-0.6839752,1.5334015,10.469177,-0.28562927,-0.30274963,-0.07376099,0,0,0,,-0.748785964,1.5263996,10.17901213,-0.304434779,-0.212061879,-0.089590074,0,0,0
8.05E+12,-0.5698395,1.5628967,10.542496,-0.20578003,-0.3798523,-0.051254272,17.042542,-22.981262,-46.696472,,-0.659312732,1.54464815,10.36075406,-0.255107404,-0.29595709,-0.070422173,8.521271,-11.490631,-23.348236
8.05E+12,-0.4427948,1.6008148,10.506271,-0.12515259,-0.4249115,-0.030838013,17.042542,-22.981262,-46.696472,,-0.551053766,1.572731475,10.43351253,-0.190129997,-0.360434295,-0.050630093,12.7819065,-17.2359465,-35.022354
8.05E+12,-0.29522705,1.6530457,10.525314,-0.05317688,-0.44158936,-0.01576233,17.042542,-22.981262,-46.696472,,-0.423140408,1.612888588,10.47941327,-0.121653439,-0.401011827,-0.033196211,14.91222425,-20.10860425,-40.859413
8.05E+12,-0.20280457,1.7217102,10.41246,1.53E-05,-0.43232727,-0.007354736,17.042542,-22.981262,-46.696472,,-0.312972489,1.667299394,10.44593663,-0.06081909,-0.416669549,-0.020275474,15.97738313,-21.54493313,-43.7779425
8.05E+12,-0.18074036,1.7626495,10.265701,0.0332489,-0.39883423,-0.004882813,17.385864,-22.398376,-47.373962,,-0.246856424,1.714974447,10.35581882,-0.013785095,-0.407751889,-0.012579143,16.68162356,-21.97165456,-45.57595225
8.05E+12,-0.17501831,1.758728,10.013504,0.051971436,-0.3382721,-0.007019043,17.385864,-22.398376,-47.373962,,-0.210937367,1.736851223,10.18466141,0.019093171,-0.373011995,-0.009799093,17.03374378,-22.18501528,-46.47495713
8.05E+12,-0.22473145,1.7465363,9.848373,0.04899597,-0.2582245,-0.010345459,17.385864,-22.398376,-47.373962,,-0.217834409,1.741693762,10.0165172,0.03404457,-0.315618247,-0.010072276,17.20980389,-22.29169564,-46.92445956
8.05E+12,-0.2800598,1.7424469,9.723907,0.02810669,-0.16807556,-0.012741089,17.385864,-22.398376,-47.373962,,-0.248947104,1.742070331,9.870212102,0.03107563,-0.241846904,-0.011406683,17.29783395,-22.34503582,-47.14921078
8.05E+12,-0.33137512,1.7545166,9.666809,-0.010513306,-0.07249451,-0.014938355,17.61322,-22.398376,-47.595215,,-0.290161112,1.748293465,9.768510551,0.010281162,-0.157170707,-0.013172519,17.45552697,-22.37170591,-47.37221289
8.05E+12,-0.36558533,1.7702332,9.627258,-0.055603027,0.018676758,-0.016174316,17.61322,-22.398376,-47.595215,,-0.327873221,1.759263333,9.697884276,-0.022660932,-0.069246974,-0.014673417,17.53437349,-22.38504096,-47.48371395
8.05E+12,-0.42549133,1.7578278,9.65741,-0.09609985,0.094192505,-0.014541626,17.61322,-22.398376,-47.595215,,-0.376682276,1.758545566,9.677647138,-0.059380391,0.012472765,-0.014607522,17.57379674,-22.39170848,-47.53946447
8.05E+12,-0.4374237,1.8215485,9.710388,-0.1352539,0.16459656,-0.013214111,17.61322,-22.398376,-47.595215,,-0.407052988,1.790047033,9.694017569,-0.097317146,0.088534663,-0.013910816,17.59350837,-22.39504224,-47.56733974
8.05E+12,-0.42860413,1.8254089,9.697159,-0.1605072,0.21446228,-0.01008606,17.738342,-21.520996,-47.473145,,-0.417828559,1.807727967,9.695588284,-0.128912173,0.151498471,-0.011998438,17.66592519,-21.95801912,-47.52024237
8.05E+12,-0.4001007,1.7736816,9.656677,-0.17114258,0.2429657,-0.005767822,17.738342,-21.520996,-47.473145,,-0.408964629,1.790704783,9.676132642,-0.150027376,0.197232086,-0.00888313,17.70213359,-21.73950756,-47.49669368
8.05E+12,-0.41374207,1.7349701,9.5243225,-0.16722107,0.25224304,-0.00352478,17.738342,-21.520996,-47.473145,,-0.41135335,1.762837442,9.600227571,-0.158624223,0.224737563,-0.006203955,17.7202378,-21.63025178,-47.48491934
8.05E+12,-0.39105225,1.7372437,9.447128,-0.16722107,0.25224304,-0.00352478,17.738342,-21.520996,-47.473145,,-0.4012028,1.750040571,9.523677786,-0.162922647,0.238490301,-0.004864368,17.7292899,-21.57562389,-47.47903217
8.05E+12,-0.35739136,1.77388,9.475662,-0.1326294,0.23054504,0.00378418,16.896057,-21.57898,-47.055054,,-0.37929708,1.761960285,9.499669893,-0.147776023,0.234517671,-0.000540094,17.31267345,-21.57730194,-47.26704309
8.05E+12,-0.29377747,1.8266754,9.355621,-0.10903931,0.20117188,0.008514404,16.896057,-21.57898,-47.055054,,-0.336537275,1.794317843,9.427645446,-0.128407667,0.217844775,0.003987155,17.10436522,-21.57814097,-47.16104854
8.05E+12,-0.30464172,1.8654785,9.150391,-0.08392334,0.16690063,0.012863159,16.896057,-21.57898,-47.055054,,-0.320589497,1.829898171,9.289018223,-0.106165503,0.192372703,0.008425157,17.00021111,-21.57856049,-47.10805127
8.05E+12,-0.28115845,1.8531647,9.071808,-0.057876587,0.12583923,0.01701355,16.583252,-21.711731,-46.925354,,-0.300873974,1.841531436,9.180413112,-0.082021045,0.159105966,0.012719353,16.79173156,-21.64514574,-47.01670264
8.05E+12,-0.245224,1.9297333,8.981522,-0.034225464,0.0793457,0.01878357,16.583252,-21.711731,-46.925354,,-0.273048987,1.885632368,9.080967556,-0.058123255,0.119225833,0.015751462,16.68749178,-21.67843837,-46.97102832
8.05E+12,-0.19859314,1.9507294,8.752197,-0.014633179,0.02961731,0.017715454,16.583252,-21.711731,-46.925354,,-0.235821063,1.918180884,8.916582278,-0.036378217,0.074421572,0.016733458,16.63537189,-21.69508469,-46.94819116
8.05E+12,-0.16789246,2.0205994,8.614548,-0.002105713,-0.019241333,0.016098022,16.583252,-21.711731,-46.925354,,-0.201856762,1.969390142,8.765565139,-0.019241965,0.027590119,0.01641574,16.60931194,-21.70340784,-46.93677258
8.05E+12,-0.17100525,2.014267,8.6094055,0.003509522,-0.07763672,0.008468628,16.583252,-21.711731,-47.192383,,-0.186431006,1.991828571,8.687485319,-0.007866222,-0.0250233,0.012442184,16.59628197,-21.70756942,-47.06457779
8.05E+12,-0.19384766,2.0135956,8.657455,0.006698608,-0.13664246,-0.001373291,16.583252,-21.711731,-47.192383,,-0.190139333,2.002712085,8.67247016,-0.000583807,-0.08083288,0.005534446,16.58976699,-21.70965021,-47.12848039
8.05E+12,-0.18836975,1.9554901,8.725494,0.00428772,-0.19024658,-0.011749268,16.583252,-21.711731,-47.192383,,-0.189254541,1.979101093,8.69898208,0.001851957,-0.13553973,-0.003107411,16.58650949,-21.71069061,-47.1604317
8.05E+12,-0.20347595,1.8810883,8.865036,-0.002822876,-0.23808289,-0.023727417,16.583252,-21.711731,-47.192383,,-0.196365246,1.930094696,8.78200904,-0.00048546,-0.18681131,-0.013417414,16.58488075,-21.7112108,-47.17640735
8.05E+12,-0.2722168,1.8397522,9.066559,-0.011077881,-0.27781677,-0.034057617,15.892029,-21.298218,-46.855164,,-0.234291023,1.884923448,8.92428402,-0.00578167,-0.23231404,-0.023737515,16.23845487,-21.5047144,-47.01578567
8.05E+12,-0.30439758,1.8084259,9.238464,-0.018676758,-0.3115387,-0.03981018,15.892029,-21.298218,-46.855164,,-0.269344301,1.846674674,9.08137401,-0.012229214,-0.27192637,-0.031773848,16.06524194,-21.4014662,-46.93547484
8.05E+12,-0.29795837,1.7694092,9.418564,-0.02619934,-0.33700562,-0.04411316,15.892029,-21.298218,-46.855164,,-0.283651336,1.808041937,9.249969005,-0.019214277,-0.304465995,-0.037943504,15.97863547,-21.3498421,-46.89531942
8.05E+12,-0.30342102,1.7147522,9.544174,-0.03024292,-0.35131836,-0.045837402,15.892029,-21.298218,-46.855164,,-0.293536178,1.761397069,9.397071502,-0.024728599,-0.327892178,-0.041890453,15.93533223,-21.32403005,-46.87524171
8.05E+12,-0.2843933,1.6171722,9.716888,-0.034057617,-0.35295105,-0.04475403,15.725708,-21.195984,-46.757507,,-0.288964739,1.689284634,9.556979751,-0.029393108,-0.340421614,-0.043322241,15.83052012,-21.26000703,-46.81637435
8.05E+12,-0.2501068,1.5673065,9.974304,-0.03515625,-0.34243774,-0.042770386,15.725708,-21.195984,-46.757507,,-0.269535769,1.628295567,9.765641876,-0.032274679,-0.341429677,-0.043046314,15.77811406,-21.22799551,-46.78694068
8.05E+12,-0.2136383,1.5428925,10.178711,-0.034500122,-0.32395935,-0.03831482,15.725708,-21.195984,-46.757507,,-0.241587035,1.585594034,9.972176438,-0.0333874,-0.332694513,-0.040680567,15.75191103,-21.21198976,-46.77222384
8.05E+12,-0.21873474,1.5780487,10.270828,-0.02734375,-0.29830933,-0.03186035,15.725708,-21.195984,-46.757507,,-0.230160887,1.581821367,10.12150222,-0.030365575,-0.315501922,-0.036270458,15.73880951,-21.20398688,-46.76486542
8.05E+12,-0.23078918,1.6338043,10.272614,-0.011077881,-0.2642975,-0.024490356,15.725708,-22.691345,-47.340393,,-0.230475034,1.607812833,10.19705811,-0.020721728,-0.289899711,-0.030380407,15.73225876,-21.94766594,-47.05262921
8.05E+12,-0.28147888,1.6585846,10.164749,0.008056641,-0.2260437,-0.01789856,15.725708,-22.691345,-47.340393,,-0.255976957,1.633198717,10.18090355,-0.006332544,-0.257971705,-0.024139484,15.72898338,-22.31950547,-47.1965111
8.05E+12,-0.33702087,1.7376709,9.95369,0.027145386,-0.18345642,-0.013565064,15.725708,-22.691345,-47.340393,,-0.296498913,1.685434808,10.06729678,0.010406421,-0.220714063,-0.018852274,15.72734569,-22.50542523,-47.26845205
8.05E+12,-0.35087585,1.7910919,9.7747345,0.042785645,-0.14038086,-0.010299683,15.725708,-22.691345,-47.340393,,-0.323687382,1.738263354,9.921015639,0.026596033,-0.180547461,-0.014575978,15.72652684,-22.59838512,-47.30442253
8.05E+12,-0.38580322,1.8371735,9.676514,0.05142212,-0.10173035,-0.006576538,14.97345,-21.862793,-48.161316,,-0.354745301,1.787718427,9.798764819,0.039009077,-0.141138906,-0.010576258,15.34998842,-22.23058906,-47.73286926
8.05E+12,-0.43901062,1.8662262,9.70285,0.052139282,-0.06854248,-0.004577637,14.97345,-21.862793,-48.161316,,-0.39687796,1.826972314,9.75080741,0.045574179,-0.104840693,-0.007576947,15.16171921,-22.04669103,-47.94709263
8.05E+12,-0.42404175,1.8497772,9.646408,0.047424316,-0.04447937,-0.00390625,14.97345,-21.862793,-48.161316,,-0.410459855,1.838374757,9.698607705,0.046499248,-0.074660031,-0.005741599,15.06758461,-21.95474201,-48.05420432
8.05E+12,-0.37701416,1.838913,9.595093,0.04333496,-0.024810791,-0.001449585,14.97345,-21.862793,-48.161316,,-0.393737008,1.838643878,9.646850352,0.044917104,-0.049735411,-0.003595592,15.0205173,-21.90876751,-48.10776016
8.05E+12,-0.3697815,1.8063965,9.6089325,0.038650513,-0.00730896,0.004638672,14.866638,-21.711731,-48.2666,,-0.381759254,1.822520189,9.627891426,0.041783808,-0.028522186,0.00052154,14.94357765,-21.81024925,-48.18718008
8.05E+12,-0.32806396,1.8422699,9.603165,0.032470703,0.006164551,0.010101318,14.866638,-21.711731,-48.2666,,-0.354911607,1.832395045,9.615528213,0.037127256,-0.011178817,0.005311429,14.90510783,-21.76099013,-48.22689004
8.05E+12,-0.3350067,1.8699341,9.469666,0.027618408,0.014099121,0.013565064,14.866638,-21.711731,-48.2666,,-0.344959153,1.851164572,9.542597107,0.032372832,0.001460152,0.009438246,14.88587291,-21.73636056,-48.24674502
8.05E+12,-0.37963867,1.8527069,9.337479,0.023880005,0.020080566,0.016174316,14.866638,-21.711731,-48.2666,,-0.362298912,1.851935736,9.440038053,0.028126418,0.010770359,0.012806281,14.87625546,-21.72404578,-48.25667251
8.05E+12,-0.36976624,1.8765869,9.24408,0.019744873,0.024047852,0.020812988,16.15448,-21.711731,-47.950745,,-0.366032576,1.864261318,9.342059027,0.023935646,0.017409105,0.016809635,15.51536773,-21.71788839,-48.10370875
8.05E+12,-0.31437683,1.9460297,9.089706,0.011169434,0.026504517,0.023803711,16.15448,-21.711731,-47.950745,,-0.340204703,1.905145509,9.215882513,0.01755254,0.021956811,0.020306673,15.83492386,-21.7148097,-48.02722688
8.05E+12,-0.24905396,2.0279388,9.0346985,-3.51E-04,0.028686523,0.029418945,16.15448,-21.711731,-47.950745,,-0.294629331,1.966542155,9.125290507,0.008600794,0.025321667,0.024862809,15.99470193,-21.71327035,-47.98898594
8.05E+12,-0.14979553,2.1300964,8.990784,-0.016799927,0.02734375,0.035095215,16.15448,-21.711731,-47.950745,,-0.222212431,2.048319277,9.058037253,-0.004099567,0.026332709,0.029979012,16.07459097,-21.71250067,-47.96986547
8.05E+12,-0.0786438,2.2053528,8.877228,-0.035751343,0.016036987,0.036010742,15.591431,-20.741272,-46.665955,,-0.150428115,2.126836039,8.967632627,-0.019925455,0.021184848,0.032994877,15.83301098,-21.22688634,-47.31791023
8.05E+12,-0.034805298,2.2584229,8.775391,-0.054840088,-0.002624512,0.030471802,15.591431,-20.741272,-46.665955,,-0.092616707,2.192629469,8.871511813,-0.037382771,0.009280168,0.031733339,15.71222099,-20.98407917,-46.99193262
8.05E+12,-0.015365601,2.2700043,8.807785,-0.07157898,-0.027191162,0.014221191,15.591431,-20.741272,-46.665955,,-0.053991154,2.231316885,8.839648407,-0.054480876,-0.008955497,0.022977265,15.651826,-20.86267558,-46.82894381
8.05E+12,-0.061325073,2.180603,8.98201,-0.08404541,-0.060287476,-0.001312256,15.591431,-20.741272,-46.665955,,-0.057658113,2.205959942,8.910829203,-0.069263143,-0.034621486,0.010832505,15.6216285,-20.80197379,-46.7474494
8.05E+12,-0.12445068,2.114975,9.205582,-0.0990448,-0.0970459,-0.017562866,15.553284,-20.681763,-46.591187,,-0.091054397,2.160467471,9.058205602,-0.084153971,-0.065833693,-0.003365181,15.58745625,-20.7418684,-46.6693182
8.05E+12,-0.042297363,2.053955,9.437912,-0.10820007,-0.13760376,-0.03303528,15.553284,-20.681763,-46.591187,,-0.06667588,2.107211236,9.248058801,-0.096177021,-0.101718727,-0.01820023,15.57037012,-20.7118157,-46.6302526
8.05E+12,-0.080322266,1.946228,9.682678,-0.10644531,-0.16921997,-0.044281006,15.553284,-20.681763,-46.591187,,-0.073499073,2.026719618,9.4653684,-0.101311165,-0.135469348,-0.031240618,15.56182706,-20.69678935,-46.6107198
8.05E+12,-0.06037903,1.9129639,9.702759,-0.097457886,-0.1920929,-0.054885864,15.553284,-20.681763,-46.591187,,-0.066939051,1.969841759,9.5840637,-0.099384526,-0.163781124,-0.043063241,15.55755553,-20.68927617,-46.6009534
8.05E+12,-0.1355133,1.8493652,9.796188,-0.082229614,-0.19714355,-0.061416626,15.553284,-20.681763,-46.591187,,-0.101226176,1.909603479,9.69012585,-0.09080707,-0.180462337,-0.052239934,15.55541977,-20.68551959,-46.5960702
8.05E+12,-0.13490295,1.8501434,9.962784,-0.0690918,-0.19241333,-0.06666565,15.553284,-20.681763,-46.591187,,-0.118064563,1.87987344,9.826454925,-0.079949435,-0.186437834,-0.059452792,15.55435188,-20.68364129,-46.5936286
8.05E+12,-0.13000488,1.8286438,10.068924,-0.056137085,-0.18197632,-0.0687561,15.553284,-20.681763,-46.591187,,-0.124034721,1.85425862,9.947689463,-0.06804326,-0.184207077,-0.064104446,15.55381794,-20.68270215,-46.5924078
8.05E+12,-0.14247131,1.7689819,10.16069,-0.043945313,-0.16395569,-0.06941223,16.900635,-23.068237,-46.59424,,-0.133253016,1.81162026,10.05418973,-0.055994286,-0.174081383,-0.066758338,16.22722647,-21.87546957,-46.5933239
8.05E+12,-0.092666626,1.7345581,10.046112,-0.029464722,-0.14022827,-0.06617737,16.900635,-23.068237,-46.59424,,-0.112959821,1.77308918,10.05015087,-0.042729504,-0.157154827,-0.066467854,16.56393074,-22.47185329,-46.59378195
8.05E+12,-0.079330444,1.7047272,9.866379,-0.009155273,-0.108169556,-0.059280396,16.900635,-23.068237,-46.59424,,-0.096145132,1.73890819,9.958264933,-0.025942389,-0.132662191,-0.062874125,16.73228287,-22.77004514,-46.59401098
8.05E+12,-0.16062927,1.6940155,9.75386,0.010971069,-0.07733154,-0.054031372,16.900635,-23.068237,-46.59424,,-0.128387201,1.716461845,9.856062466,-0.00748566,-0.104996866,-0.058452748,16.81645893,-22.91914107,-46.59412549
8.05E+12,-0.25274658,1.6937561,9.688126,0.027435303,-0.050598145,-0.0496521,14.523315,-21.368408,-46.925354,,-0.190566891,1.705108972,9.772094233,0.009974822,-0.077797505,-0.054052424,15.66988697,-22.14377454,-46.75973974
8.05E+12,-0.27752686,1.7293091,9.6471405,0.038757324,-0.028671265,-0.044799805,14.523315,-21.368408,-46.925354,,-0.234046875,1.717209036,9.709617367,0.024366073,-0.053234385,-0.049426115,15.09660098,-21.75609127,-46.84254687
8.05E+12,-0.22961426,1.7453003,9.576248,0.047332764,-0.016189575,-0.037384033,14.523315,-21.368408,-46.925354,,-0.231830568,1.731254668,9.642932683,0.035849418,-0.03471198,-0.043405074,14.80995799,-21.56224963,-46.88395044
8.05E+12,-0.13319397,1.8793793,9.444229,0.055664063,-0.009338379,-0.026748657,14.523315,-21.368408,-46.925354,,-0.182512269,1.805316984,9.543580842,0.045756741,-0.02202518,-0.035076865,14.6666365,-21.46532882,-46.90465222
8.05E+12,0.021591187,1.9905396,9.424881,0.06309509,-0.003509522,-0.014587402,14.637756,-21.408081,-46.905518,,-0.080460541,1.897928292,9.484230921,0.054425915,-0.012767351,-0.024832134,14.65219625,-21.43670491,-46.90508511
8.05E+12,0.122406006,2.0864716,9.400543,0.062927246,0.001953125,-0.008789063,14.637756,-21.408081,-46.905518,,0.020972733,1.992199946,9.44238696,0.058676581,-0.005407113,-0.016810598,14.64497612,-21.42239295,-46.90530155
8.05E+12,0.13041687,2.0836182,9.369385,0.055648804,0.008514404,-0.014968872,14.637756,-21.408081,-46.905518,,0.075694801,2.037909073,9.40588598,0.057162692,0.001553646,-0.015889735,14.64136606,-21.41523698,-46.90540978
8.05E+12,0.15635681,2.0687256,9.314835,0.04397583,0.020309448,-0.028503418,14.637756,-21.408081,-46.905518,,0.116025806,2.053317337,9.36036049,0.050569261,0.010931547,-0.022196577,14.63956103,-21.41165899,-46.90546389
8.05E+12,0.21647644,2.0329285,9.282852,0.030059814,0.039611816,-0.04446411,16.490173,-21.98944,-46.707153,,0.166251123,2.043122918,9.321606245,0.040314538,0.025271681,-0.033330343,15.56486702,-21.70054949,-46.80630844
8.05E+12,0.18736267,1.9526825,9.277405,0.012481689,0.06430054,-0.05973816,16.490173,-21.98944,-46.707153,,0.176806896,1.997902709,9.299505623,0.026398113,0.044786111,-0.046534252,16.02752001,-21.84499475,-46.75673072
8.05E+12,0.10273743,1.8886566,9.188004,-0.010238647,0.09529114,-0.074661255,16.490173,-21.98944,-46.707153,,0.139772163,1.943279655,9.243754811,0.008079733,0.070038625,-0.060597753,16.2588465,-21.91721737,-46.73194186
8.05E+12,0.08988953,1.8632813,9.153198,-0.03363037,0.13092041,-0.087387085,16.490173,-21.98944,-46.707153,,0.114830847,1.903280477,9.198476406,-0.012775318,0.100479518,-0.073992419,16.37450975,-21.95332869,-46.71954743
8.05E+12,0.04159546,1.8730316,9.291534,-0.055664063,0.16726685,-0.09680176,15.382385,-21.195984,-48.098755,,0.078213153,1.888156039,9.245005203,-0.034219691,0.133873184,-0.08539709,15.87844738,-21.57465634,-47.40915122
8.05E+12,0.004928589,1.8545074,9.523788,-0.07376099,0.19526672,-0.10231018,15.382385,-21.195984,-48.098755,,0.041570871,1.871331719,9.384396601,-0.05399034,0.164569952,-0.093853635,15.63041619,-21.38532017,-47.75395311
8.05E+12,0.007354736,1.7949524,9.715958,-0.08380127,0.2131958,-0.10494995,15.382385,-21.195984,-48.098755,,0.024462804,1.83314206,9.550177301,-0.068895805,0.188882876,-0.099401792,15.50640059,-21.29065209,-47.92635405
8.05E+12,0.016479492,1.7529755,9.755814,-0.07727051,0.22846985,-0.10494995,15.382385,-21.195984,-48.098755,,0.020471148,1.79305878,9.65299565,-0.073083158,0.208676363,-0.102175871,15.4443928,-21.24331804,-48.01255453
8.05E+12,0.02015686,1.738327,9.678421,-0.04815674,0.24668884,-0.10269165,15.42511,-21.282959,-48.18268,,0.020314004,1.76569289,9.665708325,-0.060619949,0.227682601,-0.102433761,15.4347514,-21.26313852,-48.09761726
8.05E+12,-0.03515625,1.7252197,9.565491,-0.005203247,0.26148987,-0.09794617,15.42511,-21.282959,-48.18268,,-0.007421123,1.745456295,9.615599663,-0.032911598,0.244586236,-0.100189965,15.4299307,-21.27304876,-48.14014863
8.05E+12,-0.13282776,1.7100067,9.41304,0.043670654,0.26953125,-0.09272766,15.42511,-21.282959,-48.18268,,-0.070124442,1.727731497,9.514319831,0.005379528,0.257058743,-0.096458813,15.42752035,-21.27800388,-48.16141432
8.05E+12,-0.19519043,1.6937561,9.151871,0.09390259,0.27088928,-0.08493042,15.42511,-21.282959,-48.18268,,-0.132657436,1.710743799,9.333095416,0.049641059,0.263974011,-0.090694616,15.42631517,-21.28048144,-48.17204716
8.05E+12,-0.18681335,1.7028961,8.844986,0.13787842,0.27182007,-0.07293701,15.675354,-21.533203,-48.52295,,-0.159735393,1.706819949,9.089040708,0.09375974,0.267897041,-0.081815813,15.55083459,-21.40684222,-48.34749858
8.05E+12,-0.1499176,1.7246704,8.568253,0.17248535,0.2740326,-0.055725098,15.675354,-21.533203,-48.52295,,-0.154826496,1.715745175,8.828646854,0.133122545,0.27096482,-0.068770456,15.61309429,-21.47002261,-48.43522429
8.05E+12,-0.07733154,1.8560791,8.389648,0.19197083,0.27478027,-0.035003662,15.675354,-21.533203,-48.52295,,-0.116079018,1.785912137,8.609147427,0.162546687,0.272872545,-0.051887059,15.64422415,-21.50161281,-48.47908714
8.05E+12,-0.040161133,1.9647064,8.2543335,0.19677734,0.27241516,-0.013442993,15.675354,-21.533203,-48.52295,,-0.078120076,1.875309269,8.431740463,0.179662014,0.272643853,-0.032665026,15.65978907,-21.5174079,-48.50101857
8.05E+12,-0.11192322,2.1059723,8.264175,0.19058228,0.26104736,0.003555298,15.382385,-19.47937,-47.0932,,-0.095021648,1.990640784,8.347957732,0.185122147,0.266845606,-0.014554864,15.52108704,-20.49838895,-47.79710929
8.05E+12,-0.15803528,2.164505,8.298691,0.17848206,0.24012756,0.018051147,15.382385,-19.47937,-47.0932,,-0.126528464,2.077572892,8.323324366,0.181802103,0.253486583,0.001748142,15.45173602,-19.98887948,-47.44515464
8.05E+12,-0.24958801,2.199997,8.368362,0.1669159,0.21211243,0.028244019,15.382385,-19.47937,-47.0932,,-0.188058237,2.138784946,8.345843183,0.174359002,0.232799507,0.01499608,15.41706051,-19.73412474,-47.26917732
8.05E+12,-0.28704834,2.3865356,8.6480255,0.15267944,0.17218018,0.039352417,15.382385,-19.47937,-47.0932,,-0.237553288,2.262660273,8.496934341,0.163519221,0.202489843,0.027174249,15.39972275,-19.60674737,-47.18118866
8.05E+12,-0.07136536,2.6307526,8.754959,0.14006042,0.12930298,0.049545288,15.615845,-19.98291,-46.99402,,-0.154459324,2.446706437,8.625946671,0.15178982,0.165896412,0.038359768,15.50778388,-19.79482868,-47.08760433
8.05E+12,0.18127441,2.7631836,8.552612,0.13270569,0.10064697,0.061264038,15.615845,-19.98291,-46.99402,,0.013407543,2.604945018,8.589279335,0.142247755,0.133271691,0.049811903,15.56181444,-19.88886934,-47.04081217
8.05E+12,0.36480713,2.8802032,8.35939,0.12998962,0.09555054,0.07131958,15.615845,-19.98291,-46.99402,,0.189107336,2.742574109,8.474334668,0.136118688,0.114411115,0.060565742,15.58882972,-19.93588967,-47.01741608
8.05E+12,0.46229553,2.9061584,8.39061,0.121917725,0.105148315,0.070373535,15.615845,-19.98291,-46.99402,,0.325701433,2.824366255,8.432472334,0.129018206,0.109779715,0.065469638,15.60233736,-19.95939984,-47.00571804
8.05E+12,0.529068,2.979782,8.5327,0.10151672,0.10601807,0.062683105,16.508484,-21.835327,-46.446228,,0.427384717,2.902074127,8.482586167,0.115267463,0.107898893,0.064076372,16.05541068,-20.89736342,-46.72597302
8.05E+12,0.5686035,3.081009,8.734894,0.07092285,0.095687866,0.04307556,16.508484,-21.835327,-46.446228,,0.497994108,2.991541564,8.608740083,0.093095157,0.101793379,0.053575966,16.28194734,-21.36634521,-46.58610051
8.05E+12,0.47990417,3.093216,8.723099,0.047805786,0.09005737,0.01499939,16.508484,-21.835327,-46.446228,,0.488949139,3.042378782,8.665919542,0.070450471,0.095925375,0.034287678,16.39521567,-21.6008361,-46.51616426
8.05E+12,0.38786316,3.0156403,8.724747,0.025878906,0.09768677,-0.015563965,16.23993,-21.025085,-45.9198,,0.43840615,3.029009541,8.695333271,0.048164689,0.096806072,0.009361856,16.31757283,-21.31296055,-46.21798213
8.05E+12,0.2516327,2.8913116,8.703125,0.002822876,0.11653137,-0.041763306,16.23993,-21.025085,-45.9198,,0.345019425,2.96016057,8.699229135,0.025493782,0.106668721,-0.016200725,16.27875142,-21.16902278,-46.06889106
8.05E+12,0.15890503,2.8439636,8.649063,-0.02230835,0.14147949,-0.06518555,16.23993,-21.025085,-45.9198,,0.251962227,2.902062085,8.674146068,0.001592716,0.124074106,-0.040693137,16.25934071,-21.09705389,-45.99434553
8.05E+12,0.046875,2.8140259,8.616455,-0.04664612,0.16273499,-0.07829285,16.23993,-21.025085,-45.9198,,0.149418614,2.858043993,8.645300534,-0.022526702,0.143404548,-0.059492994,16.24963535,-21.06106944,-45.95707277
8.05E+12,0.011444092,2.8695526,8.620712,-0.07435608,0.1794281,-0.08276367,16.511536,-21.025085,-46.0968,,0.080431353,2.863798296,8.633006267,-0.048441391,0.161416324,-0.071128332,16.38058568,-21.04307722,-46.02693638
8.05E+12,-0.03590393,2.9330292,8.619247,-0.095703125,0.18515015,-0.08439636,16.511536,-21.025085,-46.0968,,0.022263711,2.898413748,8.626126633,-0.072072258,0.173283237,-0.077762346,16.44606084,-21.03408111,-46.06186819
8.05E+12,6.71E-04,2.98143,8.584702,-0.112213135,0.17567444,-0.08255005,16.511536,-21.025085,-46.0968,,0.011467549,2.939921874,8.605414317,-0.092142696,0.174478838,-0.080156198,16.47879842,-21.02958306,-46.0793341
8.05E+12,0.07936096,3.079773,8.450531,-0.12272644,0.15310669,-0.083099365,16.511536,-21.025085,-46.0968,,0.045414255,3.009847437,8.527972658,-0.107434568,0.163792764,-0.081627781,16.49516721,-21.02733403,-46.08806705
8.05E+12,0.18417358,3.1444244,8.399948,-0.13174438,0.11288452,-0.087127686,17.463684,-21.025085,-46.684265,,0.114793917,3.077135919,8.463960329,-0.119589474,0.138338642,-0.084377734,16.9794256,-21.02620951,-46.38616602
8.05E+12,0.29640198,3.2249756,8.353348,-0.14312744,0.056930542,-0.09487915,17.463684,-21.025085,-46.684265,,0.205597949,3.151055759,8.408654165,-0.131358457,0.097634592,-0.089628442,17.2215548,-21.02564726,-46.53521551
8.05E+12,0.38046265,3.261444,8.454239,-0.16365051,-0.019638062,-0.10787964,17.463684,-21.025085,-46.684265,,0.293030299,3.20624988,8.431446582,-0.147504484,0.038998265,-0.098754041,17.3426194,-21.02536613,-46.60974026
8.05E+12,0.4723816,3.2399292,8.543091,-0.19024658,-0.09635925,-0.12515259,17.463684,-21.025085,-46.684265,,0.38270595,3.22308954,8.487268791,-0.168875532,-0.028680492,-0.111953315,17.4031517,-21.02522556,-46.64700263
8.05E+12,0.5157471,3.2222748,8.711868,-0.22294617,-0.16859436,-0.14538574,17.956543,-21.025085,-46.925354,,0.449226525,3.22268217,8.599568396,-0.195910851,-0.098637426,-0.128669528,17.67984735,-21.02515528,-46.78617831
8.05E+12,0.5495148,3.1826935,8.915329,-0.26226807,-0.23173523,-0.1676178,17.956543,-21.025085,-46.925354,,0.499370662,3.202687835,8.757448698,-0.22908946,-0.165186328,-0.148143664,17.81819518,-21.02512014,-46.85576616
8.05E+12,0.54255676,3.1248322,9.129318,-0.30282593,-0.2799225,-0.18969727,17.956543,-21.025085,-46.925354,,0.520963711,3.163760017,8.943383349,-0.265957695,-0.222554414,-0.168920467,17.88736909,-21.02510257,-46.89056008
8.05E+12,0.5216675,3.0814056,9.4075775,-0.34320068,-0.3177185,-0.21095276,17.956543,-21.025085,-46.925354,,0.521315606,3.122582809,9.175480424,-0.304579188,-0.270136457,-0.189936613,17.92195604,-21.02509379,-46.90795704
8.05E+12,0.41244507,3.009674,9.741119,-0.384552,-0.34710693,-0.23320007,17.610168,-21.255493,-47.14966,,0.466880338,3.066128404,9.458299712,-0.344565594,-0.308621694,-0.211568342,17.76606202,-21.14029339,-47.02880852
8.05E+12,0.27201843,2.9189453,10.084183,-0.41603088,-0.36653137,-0.25245667,17.610168,-21.255493,-47.14966,,0.369449384,2.992536852,9.771241356,-0.380298237,-0.337576532,-0.232012506,17.68811501,-21.1978932,-47.08923426
8.05E+12,0.1269989,2.8046875,10.411194,-0.43754578,-0.3746338,-0.27053833,17.610168,-21.255493,-47.14966,,0.248224142,2.898612176,10.09121768,-0.408922008,-0.356105166,-0.251275418,17.64914151,-21.2266931,-47.11944713
8.05E+12,-0.04925537,2.6524506,10.655533,-0.44544983,-0.36825562,-0.28553772,17.610168,-21.255493,-47.14966,,0.099484386,2.775531388,10.37337534,-0.427185919,-0.362180393,-0.268406569,17.62965475,-21.24109305,-47.13455356
8.05E+12,-0.21131897,2.5006714,10.833466,-0.43673706,-0.35021973,-0.29284668,16.744995,-21.530151,-47.299194,,-0.055917292,2.638101394,10.60342067,-0.43196149,-0.356200061,-0.280626624,17.18732488,-21.38562202,-47.21687378
8.05E+12,-0.30012512,2.4448242,10.888092,-0.40979004,-0.3223114,-0.29153442,16.744995,-21.530151,-47.299194,,-0.178021206,2.541462797,10.74575633,-0.420875765,-0.339255731,-0.286080522,16.96615994,-21.45788651,-47.25803389
8.05E+12,-0.3209381,2.4071503,10.89447,-0.36375427,-0.2848053,-0.28074646,16.744995,-21.530151,-47.299194,,-0.249479653,2.474306549,10.82011317,-0.392315017,-0.312030515,-0.283413491,16.85557747,-21.49401876,-47.27861395
8.05E+12,-0.26930237,2.4205322,10.770859,-0.307724,-0.24432373,-0.2625122,16.744995,-21.530151,-47.299194,,-0.259391012,2.447419374,10.79548608,-0.350019509,-0.278177123,-0.272962846,16.80028623,-21.51208488,-47.28890397
8.05E+12,-0.19439697,2.4782257,10.51387,-0.24382019,-0.2052002,-0.23925781,16.412354,-21.195984,-46.757507,,-0.226893991,2.462822537,10.65467804,-0.296919849,-0.241688661,-0.256110328,16.60632012,-21.35403444,-47.02320549
8.05E+12,-0.058944702,2.5155334,10.142227,-0.17576599,-0.16926575,-0.21536255,16.412354,-21.195984,-46.757507,,-0.142919346,2.489177969,10.39845252,-0.23634292,-0.205477206,-0.235736439,16.50933706,-21.27500922,-46.89035624
8.05E+12,0.071014404,2.5944824,9.604416,-0.11079407,-0.13471985,-0.19412231,16.412354,-21.195984,-46.757507,,-0.035952471,2.541830184,10.00143426,-0.173568495,-0.170098528,-0.214929374,16.46084553,-21.23549661,-46.82393162
8.05E+12,0.12150574,2.6972198,8.99408,-0.048217773,-0.098480225,-0.17660522,16.412354,-21.195984,-46.757507,,0.042776634,2.619524992,9.49775713,-0.110893134,-0.134289376,-0.195767297,16.43659976,-21.2157403,-46.79071931
8.05E+12,0.17703247,2.811264,8.378387,0.002212524,-0.06956482,-0.16622925,16.551208,-20.779419,-47.572327,,0.109904552,2.715394496,8.938072065,-0.054340305,-0.101927098,-0.180998274,16.49390388,-20.99757965,-47.18152316
8.05E+12,0.21463013,2.9385223,7.917816,0.033477783,-0.055786133,-0.16003418,16.551208,-20.779419,-47.572327,,0.162267341,2.826958398,8.427944033,-0.010431261,-0.078856616,-0.170516227,16.52255594,-20.88849933,-47.37692508
8.05E+12,0.27911377,3.0641022,7.7473145,0.044906616,-0.055419922,-0.15609741,16.551208,-20.779419,-47.572327,,0.220690556,2.945530299,8.087629266,0.017237678,-0.067138269,-0.163306818,16.53688197,-20.83395916,-47.47462604
8.05E+12,0.3301239,3.1182098,7.5855103,0.041763306,-0.06730652,-0.15203857,16.551208,-20.779419,-47.572327,,0.275407228,3.03187005,7.836569783,0.029500492,-0.067222394,-0.157672694,16.54404499,-20.80668908,-47.52347652
8.05E+12,0.3736267,3.206894,7.50589,0.028060913,-0.08477783,-0.15090942,16.394043,-20.239258,-48.135376,,0.324516964,3.119382025,7.671229892,0.028780702,-0.076000112,-0.154291057,16.46904399,-20.52297354,-47.82942626
8.05E+12,0.3719635,3.2512665,7.509094,0.006759644,-0.1083374,-0.154953,16.394043,-20.239258,-48.135376,,0.348240232,3.185324262,7.590161946,0.017770173,-0.092168756,-0.154622029,16.4315435,-20.38111577,-47.98240113
8.05E+12,0.3081665,3.2088165,7.4603424,-0.014663696,-0.13369751,-0.16479492,16.394043,-20.239258,-48.135376,,0.328203366,3.197070381,7.525252173,0.001553238,-0.112933133,-0.159708474,16.41279325,-20.31018689,-48.05888856
8.05E+12,0.20620728,3.1725464,7.490082,-0.034576416,-0.16152954,-0.1775055,16.394043,-20.239258,-48.135376,,0.267205323,3.184808391,7.507667086,-0.016511589,-0.137231337,-0.168606987,16.40341812,-20.27472244,-48.09713228
8.05E+12,0.16557312,3.0637054,7.520111,-0.05429077,-0.18817139,-0.18882751,15.896606,-20.33844,-47.261047,,0.216389221,3.124256895,7.513889043,-0.035401179,-0.162701363,-0.178717249,16.15001206,-20.30658122,-47.67908964
8.05E+12,0.1164093,3.0171814,7.6284943,-0.074920654,-0.21070862,-0.19602966,15.896606,-20.33844,-47.261047,,0.166399261,3.070719148,7.571191672,-0.055160917,-0.186704992,-0.187373454,16.02330903,-20.32251061,-47.47006832
8.05E+12,0.052963257,2.932602,7.7407837,-0.09613037,-0.22669983,-0.19683838,15.896606,-20.33844,-47.261047,,0.109681259,3.001660574,7.655987686,-0.075645643,-0.206702411,-0.192105917,15.95995752,-20.33047531,-47.36555766
8.05E+12,-0.006164551,2.900406,7.9203033,-0.11936951,-0.23620605,-0.19293213,15.896606,-20.33844,-47.261047,,0.051758354,2.951033287,7.788145493,-0.097507577,-0.22145423,-0.192519024,15.92828176,-20.33445765,-47.31330233
8.05E+12,-0.04396057,2.813614,8.1772,-0.14039612,-0.23887634,-0.1855011,16.384888,-20.013428,-47.10083,,0.003898892,2.882323643,7.982672746,-0.118951848,-0.230165285,-0.189010062,16.15658488,-20.17394283,-47.20706617
8.05E+12,-0.06387329,2.7685547,8.448425,-0.15498352,-0.23898315,-0.17576599,16.384888,-20.013428,-47.10083,,-0.029987199,2.825439172,8.215548873,-0.136967684,-0.234574218,-0.182388026,16.27073644,-20.09368541,-47.15394808
8.05E+12,-0.030456543,2.7341766,8.596313,-0.15963745,-0.24005127,-0.16281128,16.384888,-20.013428,-47.10083,,-0.030221871,2.779807886,8.405930937,-0.148302567,-0.237312744,-0.172599653,16.32781222,-20.05355671,-47.12738904
8.05E+12,-0.003372192,2.6912994,8.743027,-0.15963745,-0.24005127,-0.16281128,16.384888,-20.013428,-47.10083,,-0.016797032,2.735553643,8.574478968,-0.153970009,-0.238682007,-0.167705466,16.35635011,-20.03349235,-47.11410952
8.05E+12,0.029251099,2.6669006,8.934616,-0.13269043,-0.2390747,-0.12705994,16.506958,-19.903564,-47.006226,,0.006227034,2.701227121,8.754547484,-0.143330219,-0.238878353,-0.147382703,16.43165405,-19.96852818,-47.06016776
8.05E+12,0.038406372,2.568985,9.048279,-0.1078949,-0.23750305,-0.10699463,16.506958,-19.903564,-47.006226,,0.022316703,2.635106061,8.901413242,-0.12561256,-0.238190702,-0.127188667,16.46930603,-19.93604609,-47.03319688
8.05E+12,0.037109375,2.6150665,8.98436,-0.07873535,-0.22955322,-0.08534241,16.506958,-19.903564,-47.006226,,0.029713039,2.62508628,8.942886621,-0.102173955,-0.233871961,-0.106265538,16.48813201,-19.91980504,-47.01971144
8.05E+12,0.024383545,2.647049,8.811768,-0.05029297,-0.2157135,-0.06286621,16.06903,-20.166016,-47.0932,,0.027048292,2.63606764,8.877327311,-0.076233462,-0.22479273,-0.084565874,16.27858101,-20.04291052,-47.05645572
8.05E+12,0.17344666,2.7745667,8.752914,-0.025527954,-0.1972351,-0.037826538,16.06903,-20.166016,-47.0932,,0.100247476,2.70531717,8.815120655,-0.050880708,-0.211013915,-0.061196206,16.1738055,-20.10446326,-47.07482786
8.05E+12,0.40359497,2.8796234,8.667831,-0.004806519,-0.18130493,-0.014465332,16.06903,-20.166016,-47.0932,,0.251921223,2.792470285,8.741475828,-0.027843613,-0.196159423,-0.037830769,16.12141775,-20.13523963,-47.08401393
8.05E+12,0.6097717,3.0944977,8.724976,0.009719849,-0.17514038,0.004058838,16.06903,-20.166016,-47.0932,,0.430846461,2.943483993,8.733225914,-0.009061882,-0.185649901,-0.016885966,16.09522388,-20.15062782,-47.08860697
8.05E+12,0.77490234,3.1865234,8.726212,0.027633667,-0.17958069,0.014007568,15.881348,-19.979858,-47.82257,,0.602874401,3.065003696,8.729718957,0.009285892,-0.182615296,-0.001439199,15.98828594,-20.06524291,-47.45558848
8.05E+12,0.8353729,3.2310486,8.674652,0.046966553,-0.1927185,0.014297485,15.881348,-19.979858,-47.82257,,0.71912365,3.148026148,8.702185478,0.028126223,-0.187666898,0.006429143,15.93481697,-20.02255045,-47.63907924
8.05E+12,0.8892822,3.220932,8.520172,0.06855774,-0.20425415,0.00668335,15.881348,-19.979858,-47.82257,,0.804202925,3.184479074,8.611178739,0.048341981,-0.195960524,0.006556246,15.90808248,-20.00120423,-47.73082462
8.05E+12,0.8359375,3.212387,8.301712,0.08811951,-0.20907593,-0.00479126,15.881348,-19.979858,-47.82257,,0.820070213,3.198433037,8.45644537,0.068230746,-0.202518227,0.000882493,15.89471524,-19.99053111,-47.77669731
8.05E+12,0.81344604,3.1985626,8.146118,0.101882935,-0.20907593,-0.016784668,16.297913,-19.441223,-48.806763,,0.816758126,3.198497819,8.301281685,0.08505684,-0.205797078,-0.007951087,16.09631412,-19.71587706,-48.29173016
8.05E+12,0.7745209,3.2481232,7.991379,0.10624695,-0.20799255,-0.026794434,16.297913,-19.441223,-48.806763,,0.795639513,3.223310509,8.146330342,0.095651895,-0.206894814,-0.017372761,16.19711356,-19.57855003,-48.54924658
8.05E+12,0.74082947,3.2869568,7.926117,0.09805298,-0.20373535,-0.038772583,16.297913,-19.441223,-48.806763,,0.768234492,3.255133655,8.036223671,0.096852438,-0.205315082,-0.028072672,16.24751328,-19.50988651,-48.67800479
8.05E+12,0.69447327,3.3470306,7.898758,0.081954956,-0.20275879,-0.047470093,16.297913,-19.441223,-48.806763,,0.731353881,3.301082127,7.967490836,0.089403697,-0.204036936,-0.037771382,16.27271314,-19.47555476,-48.74238389
8.05E+12,0.64338684,3.3472595,7.9580994,0.06402588,-0.20851135,-0.054031372,16.755676,-19.136047,-49.10431,,0.68737036,3.324170814,7.962795118,0.076714788,-0.206274143,-0.045901377,16.51419457,-19.30580088,-48.92334695
8.05E+12,0.5895996,3.3173523,8.060684,0.04763794,-0.22007751,-0.06059265,16.755676,-19.136047,-49.10431,,0.63848498,3.320761557,8.011739559,0.062176364,-0.213175827,-0.053247014,16.63493529,-19.22092394,-49.01382847
8.05E+12,0.53518677,3.3283691,8.188385,0.036209106,-0.23469543,-0.06565857,16.755676,-19.136047,-49.10431,,0.586835875,3.324565328,8.100062279,0.049192735,-0.223935628,-0.059452792,16.69530564,-19.17848547,-49.05906924
8.05E+12,0.4796753,3.2999878,8.378128,0.028244019,-0.2482605,-0.06802368,16.755676,-19.136047,-49.10431,,0.533255588,3.312276564,8.23909514,0.038718377,-0.236098064,-0.063738236,16.72549082,-19.15726623,-49.08168962
8.05E+12,0.4488678,3.3167114,8.6671295,0.020523071,-0.25749207,-0.06713867,15.913391,-19.346619,-48.69232,,0.491061694,3.314493982,8.45311232,0.029620724,-0.246795067,-0.065438453,16.31944091,-19.25194262,-48.88700481
8.05E+12,0.49423218,3.3446655,9.00235,0.010681152,-0.26301575,-0.0617218,15.913391,-19.346619,-48.69232,,0.492646937,3.329579741,8.72773116,0.020150938,-0.254905409,-0.063580126,16.11641596,-19.29928081,-48.7896624
8.05E+12,0.57670593,3.387207,9.340363,0.004745483,-0.261261,-0.05404663,15.913391,-19.346619,-48.69232,,0.534676433,3.358393371,9.03404708,0.012448211,-0.258083204,-0.058813378,16.01490348,-19.3229499,-48.7409912
8.05E+12,0.63749695,3.4395447,9.562119,0.005477905,-0.24946594,-0.045822144,15.913391,-19.346619,-48.69232,,0.586086692,3.398969035,9.29808304,0.008963058,-0.253774572,-0.052317761,15.96414724,-19.33478445,-48.7166556
8.05E+12,0.740921,3.4935913,9.757523,0.012588501,-0.230896,-0.037994385,15.060425,-19.587708,-48.9563,,0.663503846,3.446280168,9.52780302,0.01077578,-0.242335286,-0.045156073,15.51228612,-19.46124623,-48.8364778
8.05E+12,0.80288696,3.5690765,9.9904175,0.02772522,-0.20536804,-0.032699585,15.060425,-19.587708,-48.9563,,0.733195403,3.507678334,9.75911026,0.0192505,-0.223851663,-0.038927829,15.28635556,-19.52447711,-48.8963889
8.05E+12,0.78645325,3.649887,10.159744,0.046936035,-0.17532349,-0.031936646,15.060425,-19.587708,-48.9563,,0.759824326,3.578782667,9.95942713,0.033093267,-0.199587577,-0.035432238,15.17339028,-19.55609256,-48.92634445
8.05E+12,0.722702,3.6568909,10.273651,0.067596436,-0.14234924,-0.035079956,15.060425,-19.587708,-48.9563,,0.741263163,3.617836783,10.11653906,0.050344852,-0.170968408,-0.035256097,15.11690764,-19.57190028,-48.94132223
8.05E+12,0.5830078,3.574829,10.305145,0.08728027,-0.10324097,-0.04084778,14.866638,-19.651794,-49.272156,,0.662135482,3.596332892,10.21084203,0.068812561,-0.137104689,-0.038051938,14.99177282,-19.61184714,-49.10673911
8.05E+12,0.532547,3.5135803,10.177322,0.10731506,-0.05734253,-0.0473938,14.866638,-19.651794,-49.272156,,0.597341241,3.554956596,10.19408202,0.08806381,-0.09722361,-0.042722869,14.92920541,-19.63182057,-49.18944756
8.05E+12,0.47763062,3.436325,10.006134,0.12284851,-0.012359619,-0.050827026,14.866638,-19.651794,-49.272156,,0.53748593,3.495640798,10.10010801,0.10545616,-0.054791614,-0.046774948,14.8979217,-19.64180728,-49.23080178
8.05E+12,0.48887634,3.4519653,9.938156,0.13293457,0.03302002,-0.047027588,14.866638,-19.651794,-49.272156,,0.513181135,3.473803049,10.019132,0.119195365,-0.010885797,-0.046901268,14.88227985,-19.64680064,-49.25147889
8.05E+12,0.53700256,3.5412445,9.843063,0.13430786,0.066848755,-0.037109375,15.100098,-19.184875,-48.58551,,0.525091848,3.507523774,9.931097502,0.126751613,0.027981479,-0.042005321,14.99118893,-19.41583782,-48.91849444
8.05E+12,0.52285767,3.6298218,9.844742,0.12989807,0.084747314,-0.027008057,15.100098,-19.184875,-48.58551,,0.523974759,3.568672787,9.887919751,0.128324841,0.056364396,-0.034506689,15.04564346,-19.30035641,-48.75200222
8.05E+12,0.49900818,3.6621094,9.869064,0.12185669,0.09213257,-0.01802063,15.100098,-19.184875,-48.58551,,0.511491469,3.615391094,9.878491876,0.125090766,0.074248483,-0.02626366,15.07287073,-19.24261571,-48.66875611
8.05E+12,0.51600647,3.646576,9.872787,0.106918335,0.092315674,-0.012786865,15.100098,-19.184875,-48.58551,,0.51374897,3.630983547,9.875639438,0.11600455,0.083282079,-0.019525262,15.08648437,-19.21374535,-48.62713306
8.05E+12,0.566803,3.6807861,9.928436,0.09060669,0.0861969,-0.010360718,14.138794,-19.560242,-47.68524,,0.540275985,3.655884823,9.902037719,0.10330562,0.084739489,-0.01494299,14.61263918,-19.38699368,-48.15618653
8.05E+12,0.5823517,3.750763,10.073425,0.06947327,0.07354736,-0.008987427,14.138794,-19.560242,-47.68524,,0.561313842,3.703323912,9.987731359,0.086389445,0.079143425,-0.011965209,14.37571659,-19.47361784,-47.92071326
8.05E+12,0.56803894,3.815155,10.314789,0.04093933,0.058441162,-0.008850098,14.138794,-19.560242,-47.68524,,0.564676391,3.759239456,10.15126018,0.063664388,0.068792293,-0.010407653,14.2572553,-19.51692992,-47.80297663
8.05E+12,0.6026459,3.8493652,10.723373,0.005508423,0.04411316,-0.011795044,14.138794,-19.560242,-47.68524,,0.583661146,3.804302328,10.43731659,0.034586405,0.056452727,-0.011101349,14.19802465,-19.53858596,-47.74410832
8.05E+12,0.6324463,3.7080994,11.163849,-0.03465271,0.032913208,-0.019104004,13.6657715,-19.822693,-47.428894,,0.608053723,3.756200864,10.80058279,-3.32E-05,0.044682967,-0.015102676,13.93189807,-19.68063948,-47.58650116
8.05E+12,0.6048889,3.5524902,11.54277,-0.06893921,0.029205322,-0.027801514,13.6657715,-19.822693,-47.428894,,0.606471311,3.654345532,11.1716764,-0.034486181,0.036944145,-0.021452095,13.79883479,-19.75166624,-47.50769758
8.05E+12,0.516922,3.3070374,12.10228,-0.0945282,0.032058716,-0.03591919,13.6657715,-19.822693,-47.428894,,0.561696656,3.480691466,11.6369782,-0.064507191,0.03450143,-0.028685643,13.73230314,-19.78717962,-47.46829579
8.05E+12,0.34532166,3.2005463,12.423843,-0.110580444,0.042129517,-0.039718628,14.700317,-20.341492,-47.932434,,0.453509158,3.340618883,12.0304106,-0.087543817,0.038315474,-0.034202135,14.21631007,-20.06433581,-47.70036489
8.05E+12,0.33546448,3.1795502,12.856033,-0.11225891,0.05857849,-0.031906128,14.700317,-20.341492,-47.932434,,0.394486819,3.260084541,12.4432218,-0.099901364,0.048446982,-0.033054132,14.45831354,-20.2029139,-47.81639945
8.05E+12,0.16133118,3.128296,13.171677,-0.09933472,0.07557678,-0.019882202,14.700317,-20.341492,-47.932434,,0.277908999,3.194190271,12.8074494,-0.099618042,0.062011881,-0.026468167,14.57931527,-20.27220295,-47.87441672
8.05E+12,0.059249878,3.0514374,13.448013,-0.06867981,0.0848999,-0.006408691,14.700317,-20.341492,-47.932434,,0.168579439,3.122813835,13.1277312,-0.084148926,0.07345589,-0.016438429,14.63981613,-20.30684748,-47.90342536
8.05E+12,-0.066207886,3.0056763,13.512161,-0.024047852,0.08824158,0.011199951,16.345215,-18.94226,-47.587585,,0.051185776,3.064245068,13.3199461,-0.054098389,0.080848735,-0.002619239,15.49251557,-19.62455374,-47.74550518
8.05E+12,-0.15032959,2.995041,13.395386,0.03138733,0.09236145,0.030929565,16.345215,-18.94226,-47.587585,,-0.049571907,3.029643034,13.35766605,-0.011355529,0.086605093,0.014155163,15.91886528,-19.28340687,-47.66654509
8.05E+12,-0.19641113,2.970337,13.214249,0.09388733,0.09687805,0.05718994,16.345215,-18.94226,-47.587585,,-0.122991518,2.999990017,13.28595752,0.0412659,0.091741571,0.035672551,16.13204014,-19.11283343,-47.62706505
8.05E+12,-0.26794434,2.963623,13.136337,0.14587402,0.09996033,0.07807922,16.345215,-18.94226,-47.587585,,-0.195467929,2.981806508,13.21114726,0.09356996,0.095850951,0.056875886,16.23862757,-19.02754672,-47.60732502
8.05E+12,-0.23725891,2.9893036,13.082565,0.18247986,0.10279846,0.099624634,16.755676,-18.449402,-47.428894,,-0.21636342,2.985555054,13.14685613,0.13802491,0.099324705,0.07825026,16.49715179,-18.73847436,-47.51810951
8.05E+12,-0.18904114,3.0236664,12.933212,0.20458984,0.1103363,0.11831665,16.755676,-18.449402,-47.428894,,-0.20270228,3.004610727,13.04003407,0.171307375,0.104830503,0.098283455,16.62641389,-18.59393818,-47.47350176
8.05E+12,-0.11643982,3.1121216,12.805801,0.21723938,0.12705994,0.13168335,16.755676,-18.449402,-47.428894,,-0.15957105,3.058366164,12.92291753,0.194273378,0.115945221,0.114983402,16.69104495,-18.52167009,-47.45119788
8.05E+12,-0.10626221,3.2389374,12.571106,0.21839905,0.15074158,0.1379242,16.755676,-18.449402,-47.428894,,-0.13291663,3.148651782,12.74701177,0.206336214,0.133343401,0.126453801,16.72336047,-18.48553604,-47.44004594
8.05E+12,-0.106796265,3.31044,12.320496,0.20274353,0.18721008,0.1377716,14.920044,-19.720459,-48.391724,,-0.119856447,3.229545891,12.53375388,0.204539872,0.16027674,0.132112701,15.82170224,-19.10299752,-47.91588497
8.05E+12,-0.1356659,3.3567047,12.015198,0.17402649,0.22895813,0.12857056,14.920044,-19.720459,-48.391724,,-0.127761174,3.293125295,12.27447594,0.189283181,0.194617435,0.13034163,15.37087312,-19.41172826,-48.15380448
8.05E+12,-0.2002716,3.2993927,11.736206,0.13502502,0.2680664,0.11073303,14.920044,-19.720459,-48.391724,,-0.164016387,3.296258998,12.00534097,0.1621541,0.231341918,0.12053733,15.14545856,-19.56609363,-48.27276424
8.05E+12,-0.2748413,3.173355,11.601746,0.09156799,0.29597473,0.08621216,14.920044,-19.720459,-48.391724,,-0.219428843,3.234806999,11.80354349,0.126861045,0.263658324,0.103374745,15.03275128,-19.64327632,-48.33224412
8.05E+12,-0.3917694,2.983078,11.49678,0.045272827,0.31617737,0.05999756,15.519714,-19.85321,-47.90497,,-0.305599122,3.108942499,11.65016174,0.086066936,0.289917847,0.081686153,15.27623264,-19.74824316,-48.11860706
8.05E+12,-0.5061798,2.8118896,11.379913,-0.008239746,0.33836365,0.03627014,15.519714,-19.85321,-47.90497,,-0.405889461,2.96041605,11.51503737,0.038913595,0.314140748,0.058978146,15.39797332,-19.80072658,-48.01178853
8.05E+12,-0.59539795,2.7848358,11.248001,-0.070114136,0.36631775,0.018173218,15.519714,-19.85321,-47.90497,,-0.500643705,2.872625925,11.38151919,-0.01560027,0.340229249,0.038575682,15.45884366,-19.82696829,-47.95837927
8.05E+12,-0.6818085,2.7761383,11.232956,-0.1260376,0.3873291,0.008575439,15.519714,-19.85321,-47.90497,,-0.591226103,2.824382112,11.30723759,-0.070818935,0.363779175,0.023575561,15.48927883,-19.84008914,-47.93167463
8.05E+12,-0.7779999,2.676773,11.245026,-0.17538452,0.38890076,0.002044678,15.725708,-19.822693,-47.76306,,-0.684613001,2.750577556,11.2761318,-0.123101728,0.376339967,0.012810119,15.60749341,-19.83139107,-47.84736732
8.05E+12,-0.84381104,2.5271149,11.323502,-0.2130127,0.3640747,-0.004013062,15.725708,-19.822693,-47.76306,,-0.764212021,2.638846228,11.2998169,-0.168057214,0.370207334,0.004398529,15.66660071,-19.82704204,-47.80521366
8.06E+12,-0.8721924,2.3213959,11.467361,-0.23316956,0.3158722,-0.008255005,15.725708,-19.822693,-47.76306,,-0.81820221,2.480121064,11.38358895,-0.200613387,0.343039767,-0.001928238,15.69615435,-19.82486752,-47.78413683
8.06E+12,-0.90382385,2.1069336,11.551865,-0.23872375,0.24757385,-0.009368897,15.725708,-19.822693,-47.76306,,-0.86101303,2.293527332,11.46772697,-0.219668568,0.295306808,-0.005648567,15.71093118,-19.82378026,-47.77359841
8.06E+12,-0.917923,1.9841919,11.548386,-0.23402405,0.17050171,-0.007019043,15.725708,-20.741272,-48.658752,,-0.889468015,2.138859616,11.50805649,-0.226846309,0.232904259,-0.006333805,15.71831959,-20.28252613,-48.21617521
8.06E+12,-0.91352844,1.9056396,11.571808,-0.22999573,0.10194397,-0.001220703,15.725708,-20.741272,-48.658752,,-0.901498228,2.022249608,11.53993224,-0.22842102,0.167424115,-0.003777254,15.72201379,-20.51189906,-48.4374636
8.06E+12,-0.8436432,1.8269653,11.624069,-0.23371887,0.045898438,0.006439209,15.725708,-20.741272,-48.658752,,-0.872570714,1.924607454,11.58200062,-0.231069945,0.106661276,0.001330977,15.7238609,-20.62658553,-48.5481078
8.06E+12,-0.67367554,1.7671356,11.736206,-0.24813843,0.004562378,0.013397217,15.725708,-20.741272,-48.658752,,-0.773123127,1.845871527,11.65910331,-0.239604187,0.055611827,0.007364097,15.72478445,-20.68392877,-48.6034299
8.06E+12,-0.45321655,1.7233582,11.868149,-0.26654053,-0.0259552,0.01965332,15.725708,-19.619751,-47.564697,,-0.613169838,1.784614864,11.76362616,-0.253072359,0.014828314,0.013508709,15.72524622,-20.15183988,-48.08406345
8.06E+12,-0.35035706,1.6690063,12.023621,-0.28240967,-0.056793213,0.025650024,15.725708,-19.619751,-47.564697,,-0.481763449,1.726810582,11.89362358,-0.267741014,-0.02098245,0.019579366,15.72547711,-19.88579544,-47.82438023
8.06E+12,-0.4111328,1.539978,12.159485,-0.28755188,-0.08970642,0.02520752,15.725708,-19.619751,-47.564697,,-0.446448125,1.633394291,12.02655429,-0.277646447,-0.055344435,0.022393443,15.72559256,-19.75277322,-47.69453861
8.06E+12,-0.51849365,1.3074799,12.280914,-0.28082275,-0.11785889,0.020355225,15.725708,-19.619751,-47.564697,,-0.482470887,1.470437095,12.15373414,-0.279234599,-0.086601662,0.021374334,15.72565028,-19.68626211,-47.62961781
8.06E+12,-0.5615845,1.1503448,12.345413,-0.26538086,-0.13275146,0.01651001,15.725708,-19.47937,-47.428894,,-0.522027694,1.310390948,12.24957357,-0.272307729,-0.109676561,0.018942172,15.72567914,-19.58281606,-47.5292559
8.06E+12,-0.6263733,1.0014191,12.260223,-0.24209595,-0.13124084,0.019866943,15.725708,-19.47937,-47.428894,,-0.574200497,1.155905024,12.25489829,-0.25720184,-0.120458701,0.019404558,15.72569357,-19.53109303,-47.47907495
8.06E+12,-0.7032776,0.87016296,12.136276,-0.21520996,-0.109451294,0.02897644,15.725708,-19.47937,-47.428894,,-0.638739048,1.013033992,12.19558714,-0.2362059,-0.114954997,0.024190499,15.72570078,-19.50523151,-47.45398448
8.06E+12,-0.84114075,0.7508087,11.958084,-0.17744446,-0.069366455,0.04560852,15.725708,-19.47937,-47.428894,,-0.739939899,0.881921346,12.07683557,-0.20682518,-0.092160726,0.034899509,15.72570439,-19.49230076,-47.44143924
8.06E+12,-0.92848206,0.6411743,11.594101,-0.13424683,-0.02104187,0.06781006,15.229797,-20.306396,-48.554993,,-0.83421098,0.761547823,11.83546829,-0.170536005,-0.056601298,0.051354785,15.4777507,-19.89934838,-47.99821612
8.06E+12,-0.9824524,0.562027,11.1073,-0.08558655,0.03125,0.09649658,15.229797,-20.306396,-48.554993,,-0.90833169,0.661787411,11.47138414,-0.128061277,-0.012675649,0.073925682,15.35377385,-20.10287219,-48.27660456
8.06E+12,-0.9373627,0.59147644,10.611649,-0.03942871,0.08258057,0.12974548,15.229797,-20.306396,-48.554993,,-0.922847195,0.626631926,11.04151657,-0.083744994,0.03495246,0.101835581,15.29178542,-20.20463409,-48.41579878
8.06E+12,-0.8684845,0.5926666,10.083969,-0.002319336,0.13891602,0.16267395,15.229797,-20.306396,-48.554993,,-0.895665847,0.609649263,10.56274279,-0.043032165,0.08693424,0.132254766,15.26079121,-20.25551505,-48.48539589
8.06E+12,-0.71751404,0.6426239,9.526642,0.021057129,0.19378662,0.19325256,14.213562,-19.343567,-47.628784,,-0.806589944,0.626136581,10.04469239,-0.010987518,0.14036043,0.162753663,14.73717661,-19.79954102,-48.05708994
8.06E+12,-0.61753845,0.71055603,9.050171,0.03529358,0.2574463,0.22497559,14.213562,-19.343567,-47.628784,,-0.712064197,0.668346306,9.547431696,0.012153031,0.198903365,0.193864626,14.4753693,-19.57155401,-47.84293697
8.06E+12,-0.50627136,0.7555847,8.454712,0.037887573,0.31150818,0.24934387,14.213562,-19.343567,-47.628784,,-0.609167778,0.711965503,9.001071848,0.025020302,0.255205773,0.221604248,14.34446565,-19.45756051,-47.73586049
8.06E+12,-0.45643616,0.86772156,7.9166718,0.036743164,0.35302734,0.2679596,14.213562,-19.343567,-47.628784,,-0.532801969,0.789843531,8.458871824,0.030881733,0.304116556,0.244781924,14.27901383,-19.40056375,-47.68232224
8.06E+12,-0.36351013,0.9947357,7.3935547,0.028030396,0.3751831,0.28085327,14.213562,-19.343567,-47.628784,,-0.44815605,0.892289616,7.926213262,0.029456065,0.339649828,0.262817597,14.24628791,-19.37206538,-47.65555312
8.06E+12,-0.26643372,1.0398865,7.021103,0.028030396,0.3751831,0.28085327,14.213562,-19.343567,-47.628784,,-0.357294885,0.966088058,7.473658131,0.02874323,0.357416464,0.271835434,14.22992496,-19.35781619,-47.64216856
8.06E+12,-0.3130951,1.185791,6.5855103,0.004806519,0.3527527,0.2923584,14.213562,-19.343567,-47.628784,,-0.335194992,1.075939529,7.029584216,0.016774874,0.355084582,0.282096917,14.22174348,-19.35069159,-47.63547628
8.06E+12,-0.2731018,1.1812897,6.327942,-0.02029419,0.30693054,0.28831482,14.18457,-19.311523,-47.599792,,-0.304148396,1.128614614,6.678763108,-0.001759658,0.331007561,0.285205868,14.20315674,-19.3311073,-47.61763414
8.06E+12,-0.3362732,1.2588348,6.1840363,-0.048355103,0.25151062,0.2795105,14.18457,-19.311523,-47.599792,,-0.320210798,1.193724707,6.431399704,-0.02505738,0.291259091,0.282358184,14.19386337,-19.32131515,-47.60871307
8.06E+12,-0.26924133,1.3109283,6.19606,-0.07977295,0.18411255,0.2703247,14.18457,-19.311523,-47.599792,,-0.294726064,1.252326504,6.313729852,-0.052415165,0.23768582,0.276341442,14.18921668,-19.31641907,-47.60425254
8.06E+12,-0.32518005,1.3449707,6.198944,-0.11097717,0.10270691,0.25772095,14.18457,-19.311523,-47.599792,,-0.309953057,1.298648602,6.256336926,-0.081696168,0.170196365,0.267031196,14.18689334,-19.31397104,-47.60202227
8.06E+12,-0.38056946,1.2260132,6.371002,-0.14343262,0.015136719,0.24281311,14.877319,-19.685364,-48.254395,,-0.345261259,1.262330901,6.313669463,-0.112564394,0.092666542,0.254922153,14.53210617,-19.49966752,-47.92820863
8.06E+12,-0.45732117,1.065506,6.585388,-0.17037964,-0.068878174,0.22982788,14.877319,-19.685364,-48.254395,,-0.401291214,1.16391845,6.449528731,-0.141472017,0.011894184,0.242375017,14.70471259,-19.59251576,-48.09130182
8.06E+12,-0.41275024,0.9952698,6.823944,-0.1993103,-0.15486145,0.21977234,14.877319,-19.685364,-48.254395,,-0.407020727,1.079594125,6.636736366,-0.170391158,-0.071483633,0.231073678,14.79101579,-19.63893988,-48.17284841
8.06E+12,-0.37660217,0.9854431,7.0437927,-0.22143555,-0.22563171,0.21681213,14.877319,-19.685364,-48.254395,,-0.391811449,1.032518613,6.840264533,-0.195913354,-0.148557671,0.223942904,14.8341674,-19.66215194,-48.2136217
8.06E+12,-0.29588318,1.0419464,7.3246,-0.24082947,-0.2866211,0.21884155,15.209961,-20.681763,-47.93091,,-0.343847314,1.037232506,7.082432266,-0.218371412,-0.217589386,0.221392227,15.0220642,-20.17195747,-48.07226585
8.06E+12,-0.27833557,1.0792084,7.6700745,-0.25808716,-0.33831787,0.22322083,15.209961,-20.681763,-47.93091,,-0.311091442,1.058220453,7.376253383,-0.238229286,-0.277953628,0.222306529,15.1160126,-20.42686023,-48.00158793
8.06E+12,-0.22964478,1.0383606,8.0816345,-0.27095032,-0.37869263,0.2268219,15.209961,-20.681763,-47.93091,,-0.270368111,1.048290527,7.728943942,-0.254589803,-0.328323129,0.224564214,15.1629868,-20.55431162,-47.96624896
8.06E+12,-0.15046692,0.9671478,8.501434,-0.2805786,-0.40698242,0.22827148,15.209961,-20.681763,-47.93091,,-0.210417516,1.007719163,8.115188971,-0.267584202,-0.367652774,0.226417847,15.1864739,-20.61803731,-47.94857948
8.06E+12,-0.053756714,0.9536896,8.846451,-0.28489685,-0.41825867,0.22869873,15.209961,-20.655823,-47.982788,,-0.132087115,0.980704382,8.480819985,-0.276240526,-0.392955722,0.227558289,15.19821745,-20.63693015,-47.96568374
8.06E+12,0.057495117,1.0041656,9.102386,-0.28053284,-0.40623474,0.23066711,15.209961,-20.655823,-47.982788,,-0.037295999,0.992434991,8.791602993,-0.278386683,-0.399595231,0.229112699,15.20408922,-20.64637658,-47.97423587
8.06E+12,0.18417358,1.0591888,9.281982,-0.27285767,-0.3722229,0.23069763,15.209961,-20.655823,-47.982788,,0.073438791,1.025811895,9.036792496,-0.275622176,-0.385909066,0.229905165,15.20702511,-20.65109979,-47.97851194
8.06E+12,0.3043518,1.1493683,9.377762,-0.2637329,-0.31692505,0.22680664,15.209961,-20.655823,-47.982788,,0.188895295,1.087590098,9.207277248,-0.269677538,-0.351417058,0.228355902,15.20849306,-20.65346139,-47.98064997
8.06E+12,0.42240906,1.2710419,9.339645,-0.25268555,-0.24533081,0.22172546,15.174866,-20.132446,-48.60077,,0.305652178,1.179315999,9.273461124,-0.261181544,-0.298373934,0.225040681,15.19167953,-20.3929537,-48.29070998
8.06E+12,0.4316864,1.3256531,9.239761,-0.24023438,-0.15821838,0.21063232,15.174866,-20.132446,-48.60077,,0.368669289,1.252484549,9.256611062,-0.250707962,-0.228296157,0.217836501,15.18327276,-20.26269985,-48.44573999
8.06E+12,0.31137085,1.2537384,9.068817,-0.22549438,-0.05960083,0.19137573,15.174866,-20.132446,-48.60077,,0.340020069,1.253111475,9.162714031,-0.238101171,-0.143948493,0.204606115,15.17906938,-20.19757292,-48.523255
8.06E+12,0.15148926,1.1854248,8.776459,-0.21142578,0.03668213,0.17019653,15.174866,-20.132446,-48.60077,,0.245754665,1.219268137,8.969586516,-0.224763476,-0.053633182,0.187401323,15.17696769,-20.16500946,-48.5620125
8.06E+12,-0.010513306,1.1309509,8.45639,-0.19769287,0.1299591,0.15245056,14.866638,-18.278503,-48.60077,,0.117620679,1.175109519,8.712988258,-0.211228173,0.038162959,0.169925941,15.02180285,-19.22175623,-48.58139125
8.06E+12,-0.16012573,1.0833893,8.094666,-0.18287659,0.21606445,0.14160156,14.866638,-18.278503,-48.60077,,-0.021252525,1.129249409,8.403827129,-0.197052381,0.127113705,0.155763751,14.94422042,-18.75012962,-48.59108062
8.06E+12,-0.2517395,1.0761108,7.6844482,-0.1676178,0.28459167,0.13917542,14.866638,-18.278503,-48.60077,,-0.136496013,1.102680105,8.044137664,-0.182335091,0.205852687,0.147469585,14.90542921,-18.51431631,-48.59592531
8.06E+12,-0.2617035,1.1064453,7.2426147,-0.14706421,0.33587646,0.14419556,14.866638,-18.278503,-48.60077,,-0.199099756,1.104562702,7.643376182,-0.16469965,0.270864574,0.145832573,14.88603361,-18.39640965,-48.59834766
8.06E+12,-0.2733307,1.1503448,6.7994995,-0.11773682,0.36090088,0.15490723,14.866638,-18.278503,-48.69995,,-0.236215228,1.127453751,7.221437841,-0.141218235,0.315882727,0.150369901,14.8763358,-18.33745633,-48.64914883
8.06E+12,-0.25875854,1.1805573,6.4518433,-0.08305359,0.36187744,0.16915894,14.866638,-18.278503,-48.69995,,-0.247486884,1.154005526,6.836640571,-0.112135913,0.338880083,0.159764421,14.8714869,-18.30797966,-48.67454941
8.06E+12,-0.20965576,1.2921448,6.090225,-0.044052124,0.34202576,0.18441772,14.866638,-18.278503,-48.69995,,-0.228571322,1.223075163,6.463432785,-0.078094018,0.340452922,0.17209107,14.86906245,-18.29324133,-48.68724971
8.06E+12,-0.13160706,1.4053955,5.7016754,-0.003616333,0.3056183,0.20050049,14.866638,-18.278503,-48.69995,,-0.180089191,1.314235331,6.082554093,-0.040855176,0.323035611,0.18629578,14.86785023,-18.28587217,-48.69359985
8.06E+12,-0.023345947,1.5457153,5.363785,0.03388977,0.25686646,0.2130127,14.923096,-18.56842,-49.272156,,-0.101717569,1.429975316,5.723169546,-0.003482703,0.289951035,0.19965424,14.89547311,-18.42714608,-48.98287793
8.06E+12,0.118881226,1.6660461,5.0569305,0.06968689,0.18713379,0.2230072,14.923096,-18.56842,-49.272156,,0.008581828,1.548010708,5.390050023,0.033102094,0.238542413,0.21133072,14.90928456,-18.49778304,-49.12751696
8.06E+12,0.19100952,1.7659912,4.960434,0.09710693,0.10847473,0.22850037,14.923096,-18.56842,-49.272156,,0.099795674,1.657000954,5.175242012,0.065104512,0.173508571,0.219915545,14.91619028,-18.53310152,-49.19983648
8.06E+12,0.32615662,1.8385773,5.0225983,0.113464355,0.027893066,0.22669983,14.923096,-18.56842,-49.272156,,0.212976147,1.747789127,5.098920156,0.089284433,0.100700819,0.223307688,14.91964314,-18.55076076,-49.23599624
8.06E+12,0.43955994,1.9574127,5.2127533,0.114990234,-0.042404175,0.22164917,15.209961,-19.995117,-49.272156,,0.326268044,1.852600913,5.155836728,0.102137334,0.029148322,0.222478429,15.06480207,-19.27293888,-49.25407612
8.06E+12,0.5039978,2.0840607,5.4464874,0.106414795,-0.09703064,0.21052551,15.209961,-19.995117,-49.272156,,0.415132922,1.968330807,5.301162064,0.104276064,-0.033941159,0.216501969,15.13738153,-19.63402794,-49.26311606
8.06E+12,0.57733154,2.1128082,5.7705994,0.09007263,-0.12826538,0.19570923,15.209961,-19.995117,-49.272156,,0.496232231,2.040569503,5.535880732,0.097174347,-0.08110327,0.2061056,15.17367127,-19.81457247,-49.26763603
8.06E+12,0.56536865,2.1448822,6.0200806,0.06755066,-0.13812256,0.17547607,15.209961,-19.995117,-49.272156,,0.53080044,2.092725852,5.777980666,0.082362504,-0.109612915,0.190790835,15.19181613,-19.90484474,-49.26989602
8.06E+12,0.49742126,2.1421356,6.2984924,0.044509888,-0.1214447,0.15464783,15.135193,-19.551086,-49.053955,,0.51411085,2.117430726,6.038236533,0.063436196,-0.115528807,0.172719332,15.16350457,-19.72796537,-49.16192551
8.06E+12,0.46707153,2.181961,6.5115356,0.023590088,-0.08731079,0.13591003,15.135193,-19.551086,-49.053955,,0.49059119,2.149695863,6.274886066,0.043513142,-0.101419799,0.154314681,15.14934878,-19.63952568,-49.10794025
8.06E+12,0.3179474,2.1703033,6.6788483,0.006072998,-0.040893555,0.116363525,15.135193,-19.551086,-49.053955,,0.404269295,2.159999581,6.476867183,0.02479307,-0.071156677,0.135339103,15.14227089,-19.59530584,-49.08094763
8.06E+12,0.22088623,2.149994,6.9181213,0.006072998,-0.040893555,0.116363525,15.135193,-19.551086,-49.053955,,0.312577763,2.154996791,6.697494242,0.015433034,-0.056025116,0.125851314,15.13873195,-19.57319592,-49.06745131
8.06E+12,0.17442322,2.1823425,7.15152,-0.001647949,0.038330078,0.08874512,14.94751,-18.34259,-47.947693,,0.243500491,2.168669645,6.924507121,0.006892542,-0.008847519,0.107298217,15.04312097,-18.95789296,-48.50757216
8.06E+12,0.06173706,2.0995636,7.281708,0.010467529,0.06808472,0.08061218,14.94751,-18.34259,-47.947693,,0.152618776,2.134116623,7.10310756,0.008680036,0.029618601,0.093955199,14.99531549,-18.65024148,-48.22763258
8.06E+12,-0.07362366,1.998642,7.217102,0.033828735,0.09454346,0.076797485,14.94751,-18.34259,-47.947693,,0.039497558,2.066379311,7.16010478,0.021254385,0.06208103,0.085376342,14.97141274,-18.49641574,-48.08766279
8.06E+12,-0.12889099,1.9718475,7.1842194,0.061294556,0.12286377,0.07980347,15.209961,-19.651794,-46.925354,,-0.044696716,2.019113406,7.17216209,0.041274471,0.0924724,0.082589906,15.09068687,-19.07410487,-47.50650839
8.06E+12,-0.115112305,2.0907288,7.036331,0.088897705,0.14979553,0.09059143,15.209961,-19.651794,-46.925354,,-0.079904511,2.054921103,7.104246545,0.065086088,0.121133965,0.086590668,15.15032394,-19.36294944,-47.2159312
8.06E+12,-0.09750366,2.1939545,6.936905,0.110702515,0.1743927,0.1078949,15.209961,-19.651794,-46.925354,,-0.088704085,2.124437801,7.020575773,0.087894301,0.147763333,0.097242784,15.18014247,-19.50737172,-47.0706426
8.06E+12,-0.012252808,2.2943115,6.7754364,0.125,0.1949768,0.12425232,15.209961,-19.651794,-46.925354,,-0.050478447,2.209374651,6.898006086,0.106447151,0.171370066,0.110747552,15.19505173,-19.57958286,-46.9979983
8.06E+12,0.03945923,2.3394623,6.81868,0.12934875,0.20768738,0.14089966,14.912415,-19.554138,-47.60132,,-0.005509608,2.274418475,6.858343043,0.11789795,0.189528723,0.125823606,15.05373337,-19.56686043,-47.29965915
8.06E+12,0.13983154,2.4605713,6.9492035,0.125,0.21282959,0.15245056,14.912415,-19.554138,-47.60132,,0.067160966,2.367494888,6.903773272,0.121448975,0.201179157,0.139137083,14.98307418,-19.56049921,-47.45048957
8.06E+12,0.20013428,2.5823975,7.1327667,0.112716675,0.21044922,0.16175842,14.912415,-19.554138,-47.60132,,0.133647623,2.474946194,7.018269986,0.117082825,0.205814188,0.150447751,14.94774459,-19.55731861,-47.52590479
8.06E+12,0.25697327,2.6917725,7.3521423,0.09992981,0.19807434,0.16738892,14.912415,-19.554138,-47.60132,,0.195310446,2.583359347,7.185206143,0.108506318,0.201944264,0.158918336,14.9300798,-19.5557283,-47.56361239
8.06E+12,0.2618103,2.7941132,7.526779,0.08987427,0.1773529,0.16595459,14.389038,-19.519043,-49.066162,,0.228560373,2.688736273,7.355992571,0.099190294,0.189648582,0.162436463,14.6595589,-19.53738565,-48.3148872
8.06E+12,0.2292633,2.8578491,7.7086945,0.084609985,0.15008545,0.15904236,14.389038,-19.519043,-49.066162,,0.228911837,2.773292687,7.532343536,0.091900139,0.169867016,0.160739411,14.52429845,-19.52821433,-48.6905246
8.06E+12,0.14772034,2.857895,8.005417,0.07737732,0.1085968,0.14414978,14.389038,-19.519043,-49.066162,,0.188316088,2.815593843,7.768880268,0.08463873,0.139231908,0.152444596,14.45666822,-19.52362866,-48.8783433
8.06E+12,0.005050659,2.815506,8.512543,0.0667572,0.061798096,0.12440491,14.389038,-19.519043,-49.066162,,0.096683374,2.815549922,8.140711634,0.075697965,0.100515002,0.138424753,14.42285311,-19.52133583,-48.97225265
8.06E+12,-0.08483887,2.7946472,9.189545,0.053451538,0.011245728,0.10331726,14.866638,-19.995117,-48.60077,,0.005922252,2.805098561,8.665128317,0.064574751,0.055880365,0.120871006,14.64474556,-19.75822642,-48.78651132
8.06E+12,-0.1580658,2.7525635,9.888824,0.04168701,-0.034332275,0.085861206,14.866638,-19.995117,-48.60077,,-0.076071774,2.77883103,9.276976158,0.053130881,0.010774045,0.103366106,14.75569178,-19.87667171,-48.69364066
8.06E+12,-0.21873474,2.6377106,10.513657,0.04135132,-0.07373047,0.072525024,14.866638,-19.995117,-48.60077,,-0.147403257,2.708270815,9.895316579,0.0472411,-0.031478212,0.087945565,14.81116489,-19.93589435,-48.64720533
8.06E+12,-0.30410767,2.4855957,11.14743,0.05783081,-0.1048584,0.060928345,14.866638,-19.995117,-48.60077,,-0.225755464,2.596933258,10.52137329,0.052535955,-0.068168306,0.074436955,14.83890144,-19.96550568,-48.62398767
8.06E+12,-0.3759613,2.321167,11.462219,0.095687866,-0.12753296,0.054229736,14.927673,-19.56482,-48.66028,,-0.300858382,2.459050129,10.99179614,0.074111911,-0.097850633,0.064333346,14.88328722,-19.76516284,-48.64213383
8.06E+12,-0.38319397,2.1611328,11.593658,0.14756775,-0.13859558,0.05418396,14.927673,-19.56482,-48.66028,,-0.342026176,2.310091464,11.29272707,0.11083983,-0.118223107,0.059258653,14.90548011,-19.66499142,-48.65120692
8.06E+12,-0.39067078,2.0865784,11.692596,0.20315552,-0.13679504,0.05860901,14.927673,-19.56482,-48.66028,,-0.366348478,2.198334932,11.49266154,0.156997675,-0.127509073,0.058933831,14.91657656,-19.61490571,-48.65574346
8.06E+12,-0.3748474,2.0574493,11.90892,0.24787903,-0.12449646,0.06866455,14.927673,-19.56482,-48.66028,,-0.370597939,2.127892116,11.70079077,0.202438353,-0.126002767,0.063799191,14.92212478,-19.58986285,-48.65801173
8.06E+12,-0.29815674,2.006546,12.147125,0.27452087,-0.10423279,0.08294678,14.653015,-19.050598,-49.269104,,-0.334377339,2.067219058,11.92395788,0.238479611,-0.115117778,0.073372985,14.78756989,-19.32023043,-48.96355786
8.06E+12,-0.22259521,1.9322357,12.337799,0.28536987,-0.070495605,0.09887695,14.653015,-19.050598,-49.269104,,-0.278486275,1.999727379,12.13087844,0.261924741,-0.092806692,0.086124968,14.72029244,-19.18541421,-49.11633093
8.06E+12,-0.115371704,1.9046478,12.5125885,0.28678894,-0.020629883,0.11340332,14.653015,-19.050598,-49.269104,,-0.196928989,1.95218759,12.32173347,0.27435684,-0.056718287,0.099764144,14.68665372,-19.11800611,-49.19271747
8.06E+12,0.0128479,1.9428253,12.481689,0.28126526,0.037841797,0.12654114,14.653015,-19.050598,-49.269104,,-0.092040545,1.947506445,12.40171124,0.27781105,-0.009438245,0.113152642,14.66983436,-19.08430205,-49.23091073
8.06E+12,0.12802124,2.0168762,12.340363,0.26756287,0.10031128,0.13748169,14.009094,-19.47937,-50.109863,,0.017990348,1.982191322,12.37103712,0.27268696,0.045436517,0.125317166,14.33946418,-19.28183603,-49.67038687
8.06E+12,0.22180176,2.1017914,12.204773,0.24380493,0.15852356,0.14289856,14.009094,-19.47937,-50.109863,,0.119896054,2.041991361,12.28790506,0.258245945,0.101980039,0.134107863,14.17427909,-19.38060301,-49.89012493
8.06E+12,0.32867432,2.1883545,12.115616,0.21080017,0.20014954,0.1403656,14.009094,-19.47937,-50.109863,,0.224285187,2.115172931,12.20176053,0.234523058,0.151064789,0.137236731,14.09168655,-19.42998651,-49.99999397
8.06E+12,0.5309448,2.2164307,12.258972,0.16545105,0.2272644,0.12944031,14.009094,-19.47937,-50.109863,,0.377614993,2.165801815,12.23036626,0.199987054,0.189164595,0.133338521,14.05039027,-19.45467825,-50.05492848
8.06E+12,0.70495605,2.2535553,12.559921,0.11172485,0.23474121,0.113601685,14.889526,-19.332886,-48.81897,,0.541285522,2.209678558,12.39514363,0.155855952,0.211952902,0.123470103,14.46995814,-19.39378213,-49.43694924
8.06E+12,0.9353485,2.273056,12.884552,0.05783081,0.22019958,0.089660645,14.889526,-19.332886,-48.81897,,0.738317011,2.241367279,12.63984782,0.106843381,0.216076241,0.106565374,14.67974207,-19.36333406,-49.12795962
8.06E+12,1.0760803,2.2514954,13.14183,0.01260376,0.18304443,0.05545044,14.889526,-19.332886,-48.81897,,0.907198655,2.246431339,12.89083891,0.05972357,0.199560336,0.081007907,14.78463403,-19.34811003,-48.97346481
8.06E+12,1.0932312,2.149887,13.341003,-0.014785767,0.11936951,0.015014648,14.889526,-19.332886,-48.81897,,1.000214928,2.19815917,13.11592095,0.022468902,0.159464923,0.048011277,14.83708002,-19.34049802,-48.89621741
8.06E+12,0.9556732,1.9820251,13.611984,-0.021255493,0.0382843,-0.030944824,15.534973,-20.126343,-47.613525,,0.977944064,2.090092135,13.36395248,0.000606704,0.098874611,0.008533227,15.18602651,-19.73342051,-48.2548712
8.06E+12,0.68955994,1.7516937,13.755768,-0.009796143,-0.07170105,-0.088409424,15.534973,-20.126343,-47.613525,,0.833752002,1.920892917,13.55986024,-0.004594719,0.013586781,-0.039938099,15.36049975,-19.92988175,-47.9341981
8.06E+12,0.37820435,1.4396667,13.964462,0.015228272,-0.18591309,-0.1350708,15.534973,-20.126343,-47.613525,,0.605978176,1.680279809,13.76216112,0.005316776,-0.086163155,-0.087504449,15.44773638,-20.02811238,-47.77386155
8.06E+12,0.09700012,1.2124481,14.126022,0.048461914,-0.28981018,-0.16999817,15.534973,-20.126343,-47.613525,,0.351489148,1.446363954,13.94409156,0.026889345,-0.187986667,-0.12875131,15.49135469,-20.07722769,-47.69369328
8.06E+12,-0.109191895,0.99516296,14.180084,0.07814026,-0.372818,-0.18850708,14.866638,-21.368408,-48.2666,,0.121148626,1.220763457,14.06208778,0.052514803,-0.280402334,-0.158629195,15.17899634,-20.72281784,-47.98014664
8.06E+12,-0.12510681,0.86875916,14.035904,0.10769653,-0.42990112,-0.18830872,14.866638,-21.368408,-48.2666,,-0.001979092,1.044761309,14.04899589,0.080105666,-0.355151727,-0.173468957,15.02281717,-21.04561292,-48.12337332
8.06E+12,-0.05319214,0.8069,13.793747,0.13311768,-0.45991516,-0.17346191,14.866638,-21.368408,-48.2666,,-0.027585616,0.925830654,13.92137144,0.106611673,-0.407533443,-0.173465434,14.94472759,-21.20701046,-48.19498666
8.06E+12,0.059158325,0.8297882,13.628586,0.15449524,-0.47502136,-0.14846802,15.122986,-19.743347,-47.514343,,0.015786355,0.877809427,13.77497872,0.130553457,-0.441277402,-0.160966727,15.03385679,-20.47517873,-47.85466483
8.06E+12,0.10978699,0.81211853,13.222443,0.1673584,-0.4723053,-0.12435913,15.122986,-19.743347,-47.514343,,0.062786672,0.844963979,13.49871086,0.148955928,-0.456791351,-0.142662928,15.0784214,-20.10926287,-47.68450391
8.06E+12,0.15248108,0.7992859,12.792633,0.17208862,-0.45515442,-0.09950256,15.122986,-19.743347,-47.514343,,0.107633876,0.822124939,13.14567193,0.160522274,-0.455972885,-0.121082744,15.1007037,-19.92630493,-47.59942346
8.06E+12,0.22026062,0.94311523,12.3428955,0.16404724,-0.42625427,-0.08027649,15.122986,-19.743347,-47.514343,,0.163947248,0.882620085,12.74428372,0.162284757,-0.441113578,-0.100679617,15.11184485,-19.83482597,-47.55688323
8.06E+12,0.3867035,1.1334839,12.211594,0.13922119,-0.39317322,-0.06665039,14.503479,-19.335938,-47.78595,,0.275325374,1.008051992,12.47793886,0.150752974,-0.417143399,-0.083665004,14.80766192,-19.58538198,-47.67141661
8.06E+12,0.4459076,1.2690582,11.975235,0.1058197,-0.3659973,-0.057785034,14.503479,-19.335938,-47.78595,,0.360616487,1.138555096,12.22658693,0.128286337,-0.391570349,-0.070725019,14.65557046,-19.46065999,-47.72868331
8.06E+12,0.5031433,1.3447113,11.97847,0.058883667,-0.3461151,-0.05609131,14.503479,-19.335938,-47.78595,,0.431879894,1.241633198,12.10252846,0.093585002,-0.368842725,-0.063408164,14.57952473,-19.398299,-47.75731665
8.06E+12,0.5923004,1.3943787,11.899063,0.014190674,-0.3354187,-0.06600952,14.503479,-19.335938,-47.78595,,0.512090147,1.318005949,12.00079573,0.053887838,-0.352130712,-0.064708842,14.54150187,-19.3671185,-47.77163333
8.06E+12,0.6921997,1.4966736,11.813873,-0.029541016,-0.33148193,-0.08262634,13.6657715,-20.509338,-48.768616,,0.602144923,1.407339775,11.90733437,0.012173411,-0.341806321,-0.073667591,14.10363668,-19.93822825,-48.27012466
8.06E+12,0.80366516,1.6555939,11.7977295,-0.07369995,-0.32954407,-0.10575867,13.6657715,-20.509338,-48.768616,,0.702905042,1.531466837,11.85253193,-0.03076327,-0.335675196,-0.089713131,13.88470409,-20.22378312,-48.51937033
8.06E+12,1.0095367,1.7618561,11.827515,-0.120651245,-0.32847595,-0.13546753,13.6657715,-20.509338,-48.768616,,0.856220871,1.646661469,11.84002347,-0.075707257,-0.332075573,-0.11259033,13.7752378,-20.36656056,-48.64399317
8.06E+12,1.2254486,1.8190155,12.075684,-0.17092896,-0.32810974,-0.17358398,13.6657715,-20.509338,-48.768616,,1.040834735,1.732838484,11.95785373,-0.123318109,-0.330092656,-0.143087155,13.72050465,-20.43794928,-48.70630458
8.06E+12,1.4033203,1.8139648,12.442459,-0.22698975,-0.32946777,-0.22525024,13.957214,-20.217896,-48.86322,,1.222077518,1.773401642,12.20015637,-0.175153929,-0.329780213,-0.184168698,13.83885932,-20.32792264,-48.78476229
8.06E+12,1.4813995,1.7970734,12.82486,-0.27534485,-0.3280182,-0.28199768,13.957214,-20.217896,-48.86322,,1.351738509,1.785237521,12.51250818,-0.22524939,-0.328899207,-0.233083189,13.89803666,-20.27290932,-48.82399115
8.06E+12,1.4247589,1.6312103,13.038437,-0.31019592,-0.32250977,-0.34571838,13.957214,-20.217896,-48.86322,,1.388248704,1.708223911,12.77547259,-0.267722655,-0.325704488,-0.289400784,13.92762533,-20.24540266,-48.84360557
8.06E+12,1.2636108,1.3942261,13.088638,-0.32731628,-0.3058319,-0.41004944,13.957214,-20.217896,-48.86322,,1.325929752,1.551225005,12.9320553,-0.297519467,-0.315768194,-0.349725112,13.94241967,-20.23164933,-48.85341279
8.06E+12,0.97994995,1.1472626,13.105331,-0.33155823,-0.27827454,-0.47123718,14.079285,-19.29779,-48.254395,,1.152939851,1.349243803,13.01869315,-0.314538849,-0.297021367,-0.410481146,14.01085233,-19.76471967,-48.55390389
8.06E+12,0.5607605,0.80070496,13.084473,-0.32289124,-0.24429321,-0.5254822,14.079285,-19.29779,-48.254395,,0.856850176,1.074974381,13.05158307,-0.318715044,-0.270657289,-0.467981673,14.04506867,-19.53125483,-48.40414945
8.06E+12,0.18305969,0.46081543,13.024902,-0.29919434,-0.2050476,-0.5654144,14.079285,-19.29779,-48.254395,,0.519954933,0.767894906,13.03824254,-0.308954692,-0.237852444,-0.516698037,14.06217683,-19.41452242,-48.32927222
8.06E+12,-0.11691284,0.13632202,12.845627,-0.26493835,-0.16233826,-0.5787201,14.079285,-19.29779,-48.254395,,0.201521046,0.452108463,12.94193477,-0.286946521,-0.200095352,-0.547709068,14.07073092,-19.35615621,-48.29183361
8.06E+12,-0.31399536,-0.06402588,12.540482,-0.21868896,-0.11061096,-0.56573486,14.009094,-18.792725,-47.76306,,-0.056237157,0.194041291,12.74120838,-0.252817741,-0.155353156,-0.556721964,14.03991246,-19.0744406,-48.02744681
8.06E+12,-0.47000122,-0.14497375,12.165466,-0.16468811,-0.053329468,-0.5298004,14.009094,-18.792725,-47.76306,,-0.263119188,0.024533771,12.45333719,-0.208752925,-0.104341312,-0.543261182,14.02450323,-18.9335828,-47.8952534
8.06E+12,-0.5218048,-0.18009949,11.656189,-0.10787964,0.001922607,-0.47721863,14.009094,-18.792725,-47.76306,,-0.392461994,-0.07778286,12.0547631,-0.158316283,-0.051209352,-0.510239906,14.01679861,-18.8631539,-47.8291567
8.06E+12,-0.44537354,-0.14299011,11.080566,-0.045425415,0.056121826,-0.40982056,14.009094,-18.792725,-47.76306,,-0.418917767,-0.110386485,11.56766455,-0.101870849,0.002456237,-0.460030233,14.01294631,-18.82793945,-47.79610835
8.06E+12,-0.2535553,-0.03227234,10.44043,0.02130127,0.100616455,-0.33335876,13.789368,-19.230652,-48.831177,,-0.336236534,-0.071329412,11.00404727,-0.040284789,0.051536346,-0.396694497,13.90115715,-19.02929573,-48.31364268
8.06E+12,0.04650879,0.19644165,9.677689,0.08744812,0.12773132,-0.2569275,13.789368,-19.230652,-48.831177,,-0.144863872,0.062556119,10.34086814,0.023581665,0.089633833,-0.326810998,13.84526258,-19.12997386,-48.57240984
8.06E+12,0.37828064,0.5249176,8.897247,0.14956665,0.1412201,-0.18493652,13.789368,-19.230652,-48.831177,,0.116708384,0.293736859,9.619057569,0.086574158,0.115426966,-0.255873759,13.81731529,-19.18031293,-48.70179342
8.06E+12,0.6657562,0.81111145,8.223373,0.19902039,0.13894653,-0.12495422,13.789368,-19.230652,-48.831177,,0.391232292,0.552424155,8.921215284,0.142797274,0.127186748,-0.19041399,13.80334164,-19.20548247,-48.76648521
8.06E+12,0.88127136,1.0530548,7.6022644,0.23205566,0.12133789,-0.08482361,13.220215,-19.702148,-49.0036,,0.636251826,0.802739477,8.261739842,0.187426467,0.124262319,-0.1376188,13.51177832,-19.45381523,-48.8850426
8.06E+12,1.1299591,1.2476196,7.0572815,0.25013733,0.09240723,-0.06185913,13.220215,-19.702148,-49.0036,,0.883105463,1.025179539,7.659510671,0.218781898,0.108334775,-0.099738965,13.36599666,-19.57798162,-48.9443213
8.06E+12,1.345993,1.3778839,6.632492,0.24832153,0.059570313,-0.054611206,13.220215,-19.702148,-49.0036,,1.114549232,1.201531719,7.146001336,0.233551714,0.083952544,-0.077175085,13.29310583,-19.64006481,-48.97396065
8.06E+12,1.489624,1.5519409,6.267639,0.22645569,0.029937744,-0.058441162,13.220215,-19.702148,-49.0036,,1.302086616,1.37673631,6.706820168,0.230003702,0.056945144,-0.067808124,13.25666042,-19.6711064,-48.98878033
8.06E+12,1.5789185,1.6963959,6.059799,0.18276978,0.004745483,-0.076431274,12.979126,-19.822693,-48.768616,,1.440502558,1.536566105,6.383309584,0.206386741,0.030845314,-0.072119699,13.11789321,-19.7468997,-48.87869816
8.06E+12,1.5950165,1.7929382,5.9795227,0.12339783,-0.015960693,-0.105911255,12.979126,-19.822693,-48.768616,,1.517759529,1.664752152,6.181416142,0.164892286,0.00744231,-0.089015477,13.0485096,-19.78479635,-48.82365708
8.06E+12,1.5638275,1.7632599,6.0129547,0.05505371,-0.031280518,-0.14219666,12.979126,-19.822693,-48.768616,,1.540793514,1.714006026,6.097185421,0.109972998,-0.011919104,-0.115606068,13.0138178,-19.80374468,-48.79613654
8.06E+12,1.5038757,1.6903992,6.156357,-0.028747559,-0.039352417,-0.18519592,12.979126,-19.822693,-48.768616,,1.522334607,1.702202613,6.12677121,0.040612719,-0.02563576,-0.150400994,12.9964719,-19.81321884,-48.78237627
8.06E+12,1.4383545,1.6046143,6.3023224,-0.11192322,-0.038497925,-0.22917175,13.708496,-19.822693,-48.53058,,1.480344554,1.653408457,6.214546805,-0.03565525,-0.032066843,-0.189786372,13.35248395,-19.81795592,-48.65647814
8.06E+12,1.3685455,1.5301514,6.554886,-0.1893158,-0.033477783,-0.26919556,13.708496,-19.822693,-48.53058,,1.424445027,1.591779928,6.384716403,-0.112485525,-0.032772313,-0.229490966,13.53048998,-19.82032446,-48.59352907
8.06E+12,1.3463135,1.4746246,6.924408,-0.25686646,-0.023223877,-0.3026123,13.708496,-19.822693,-48.53058,,1.385379263,1.533202264,6.654562201,-0.184675993,-0.027998095,-0.266051633,13.61949299,-19.82150873,-48.56205453
8.06E+12,1.3303375,1.3591461,7.168915,-0.3156891,-0.009307861,-0.33247375,13.708496,-19.822693,-48.53058,,1.357858382,1.446174182,6.911738601,-0.250182546,-0.018652978,-0.299262692,13.66399449,-19.82210086,-48.54631727
8.06E+12,1.2264862,1.1708374,7.5586243,-0.35580444,0.008728027,-0.35728455,14.009094,-20.069885,-48.43445,,1.292172291,1.308505791,7.23518145,-0.302993493,-0.004962475,-0.328273621,13.83654425,-19.94599293,-48.49038363
8.06E+12,1.059433,1.0589294,7.8328094,-0.38752747,0.034851074,-0.38104248,14.009094,-20.069885,-48.43445,,1.175802645,1.183717596,7.533995425,-0.345260482,0.014944299,-0.35465805,13.92281912,-20.00793897,-48.46241682
8.06E+12,0.8783722,0.99583435,7.9982147,-0.40107727,0.07077026,-0.39764404,14.009094,-20.069885,-48.43445,,1.027087423,1.089775973,7.766105063,-0.373168876,0.04285728,-0.376151045,13.96595656,-20.03891198,-48.44843341
8.06E+12,0.77212524,1.04216,8.145157,-0.40534973,0.11242676,-0.40519714,14.009094,-20.166016,-48.43445,,0.899606331,1.065967986,7.955631031,-0.389259303,0.07764202,-0.390674093,13.98752528,-20.10246399,-48.4414417
8.06E+12,0.62734985,1.0358124,8.327652,-0.40498352,0.15713501,-0.40826416,14.009094,-20.166016,-48.43445,,0.763478091,1.050890193,8.141641516,-0.397121411,0.117388515,-0.399469126,13.99830964,-20.13424,-48.43794585
8.06E+12,0.5729065,0.9745941,8.535919,-0.3957367,0.2036438,-0.40698242,14.009094,-20.166016,-48.43445,,0.668192295,1.012742147,8.338780258,-0.396429056,0.160516157,-0.403225773,14.00370182,-20.150128,-48.43619793
8.06E+12,0.50027466,0.8991699,8.605667,-0.37922668,0.2421112,-0.40286255,14.009094,-20.166016,-48.43445,,0.584233478,0.955956023,8.472223629,-0.387827868,0.201313679,-0.403044162,14.00639791,-20.158072,-48.43532396
8.06E+12,0.46368408,0.8964081,8.601929,-0.33685303,0.2774048,-0.39323425,14.009094,-19.631958,-48.693848,,0.523958779,0.926182062,8.537076314,-0.362340449,0.239359239,-0.398139206,14.00774596,-19.895015,-48.56458598
8.06E+12,0.46759033,0.8945923,8.363403,-0.2848816,0.29988098,-0.3821411,14.009094,-19.631958,-48.693848,,0.495774554,0.910387181,8.450239657,-0.323611024,0.26962011,-0.390140153,14.00841998,-19.7634865,-48.62921699
8.06E+12,0.5241394,0.9241638,8.238586,-0.22032166,0.30950928,-0.37028503,14.009094,-19.631958,-48.693848,,0.509956977,0.91727549,8.344412829,-0.271966342,0.289564695,-0.380212591,14.00875699,-19.69772225,-48.6615325
8.06E+12,0.614563,1.0214233,7.9520874,-0.14234924,0.30296326,-0.35920715,14.009094,-19.631958,-48.693848,,0.562259989,0.969349395,8.148250114,-0.207157791,0.296263977,-0.369709871,14.00892549,-19.66484012,-48.67769025
8.06E+12,0.7277527,1.1065216,7.619385,-0.055862427,0.27790833,-0.34753418,15.493774,-18.804932,-48.373413,,0.645006344,1.037935498,7.883817557,-0.131510109,0.287086154,-0.358622025,14.75134975,-19.23488606,-48.52555162
8.06E+12,0.7821045,1.1899872,7.1947327,0.033096313,0.23649597,-0.33836365,15.493774,-18.804932,-48.373413,,0.713555422,1.113961349,7.539275129,-0.049206898,0.261791062,-0.348492838,15.12256187,-19.01990903,-48.44948231
8.06E+12,0.7717438,1.2762146,6.693985,0.13311768,0.17185974,-0.33595276,15.493774,-18.804932,-48.373413,,0.742649611,1.195087974,7.116630064,0.041955391,0.216825401,-0.342222799,15.30816794,-18.91242052,-48.41144766
8.06E+12,0.7084503,1.302597,6.1822205,0.2210083,0.09976196,-0.33979797,15.493774,-18.804932,-48.373413,,0.725549956,1.248842487,6.649425282,0.131481845,0.15829368,-0.341010384,15.40097097,-18.85867626,-48.39243033
8.06E+12,0.5632477,1.2818298,5.781067,0.28707886,0.029953003,-0.35040283,15.896606,-18.621826,-48.2666,,0.644398828,1.265336144,6.215246141,0.209280353,0.094123342,-0.345706607,15.64878848,-18.74025113,-48.32951516
8.06E+12,0.45443726,1.2711029,5.59198,0.32374573,-0.028381348,-0.3605652,15.896606,-18.621826,-48.2666,,0.549418044,1.268219522,5.903613071,0.266513041,0.032870997,-0.353135904,15.77269724,-18.68103856,-48.29805758
8.06E+12,0.3933258,1.2349854,5.555664,0.32992554,-0.06652832,-0.3687744,15.896606,-18.621826,-48.2666,,0.471371922,1.251602461,5.729638535,0.298219291,-0.016828662,-0.360955152,15.83465162,-18.65143228,-48.28232879
8.06E+12,0.33032227,1.2341461,5.7233276,0.3120575,-0.08407593,-0.37094116,15.896606,-18.621826,-48.2666,,0.400847096,1.24287428,5.726483068,0.305138395,-0.050452296,-0.365948156,15.86562881,-18.63662914,-48.2744644
8.06E+12,0.22528076,1.2094574,5.9013977,0.27534485,-0.079452515,-0.37051392,15.603638,-18.914795,-48.2666,,0.313063928,1.22616584,5.813940384,0.290241623,-0.064952405,-0.368231038,15.73463341,-18.77571207,-48.2705322
8.06E+12,0.10066223,1.1874695,5.9996643,0.2361908,-0.054275513,-0.36805725,15.603638,-18.914795,-48.2666,,0.206863079,1.20681767,5.906802342,0.263216211,-0.059613959,-0.368144144,15.6691357,-18.84525354,-48.2685661
8.06E+12,-0.009307861,1.2107544,6.082962,0.20335388,-0.016342163,-0.3627472,15.603638,-18.914795,-48.2666,,0.098777609,1.208786035,5.994882171,0.233285046,-0.037978061,-0.365445672,15.63638685,-18.88002427,-48.26758305
8.06E+12,-0.064834595,1.2254944,6.2248383,0.18205261,0.021026611,-0.3547058,15.603638,-18.914795,-48.2666,,0.016971507,1.217140218,6.109860235,0.207668828,-0.008475725,-0.360075736,15.62001243,-18.89740963,-48.26709152
8.06E+12,-0.0980072,1.1976471,6.3384247,0.173172,0.05091858,-0.34420776,15.553284,-18.08319,-47.68982,,-0.040517847,1.207393659,6.224142468,0.190420414,0.021221427,-0.352141748,15.58664821,-18.49029982,-47.97845576
8.06E+12,-0.17562866,1.2159424,6.494568,0.17601013,0.07661438,-0.33171082,15.553284,-18.08319,-47.68982,,-0.108073253,1.211668029,6.359355234,0.183215272,0.048917904,-0.341926284,15.56996611,-18.28674491,-47.83413788
8.06E+12,-0.24137878,1.2565613,6.729706,0.18963623,0.10154724,-0.31755066,15.553284,-18.08319,-47.68982,,-0.174726017,1.234114665,6.544530617,0.186425751,0.075232572,-0.329738472,15.56162505,-18.18496745,-47.76197894
8.06E+12,-0.30917358,1.2273407,6.9869843,0.20840454,0.12495422,-0.30155945,15.553284,-18.08319,-47.68982,,-0.241949798,1.230727682,6.765757458,0.197415145,0.100093396,-0.315648961,15.55745453,-18.13407873,-47.72589947
8.06E+12,-0.33206177,1.1649475,7.1264496,0.23161316,0.14785767,-0.28225708,15.553284,-17.93518,-47.595215,,-0.287005784,1.197837591,6.946103529,0.214514153,0.123975533,-0.29895302,15.55536926,-18.03462936,-47.66055724
8.06E+12,-0.3488617,1.1340332,7.0953674,0.26187134,0.1714325,-0.25958252,15.553284,-17.93518,-47.595215,,-0.317933742,1.165935396,7.020735465,0.238192746,0.147704016,-0.27926777,15.55432663,-17.98490468,-47.62788612
8.06E+12,-0.36238098,1.182251,7.0700226,0.29832458,0.19119263,-0.23246765,15.553284,-17.93518,-47.595215,,-0.340157361,1.174093198,7.045379032,0.268258663,0.169448323,-0.25586771,15.55380532,-17.96004234,-47.61155056
8.06E+12,-0.2944336,1.286499,7.0125732,0.34327698,0.19894409,-0.19950867,15.553284,-17.93518,-47.595215,,-0.317295481,1.230296099,7.028976116,0.305767822,0.184196207,-0.22768819,15.55354466,-17.94761117,-47.60338278
8.06E+12,-0.21438599,1.3224182,6.925995,0.3921051,0.18959045,-0.16493225,15.867615,-18.881226,-48.825073,,-0.265840735,1.276357149,6.977485558,0.348936461,0.186893328,-0.19631022,15.71057983,-18.41441859,-48.21422789
8.06E+12,-0.21151733,1.3248596,6.77861,0.44091797,0.17019653,-0.13182068,15.867615,-18.881226,-48.825073,,-0.238679033,1.300608375,6.878047779,0.394927215,0.178544929,-0.16406545,15.78909741,-18.64782229,-48.51965044
8.06E+12,-0.21351624,1.3964844,6.5869904,0.48324585,0.14445496,-0.10050964,15.867615,-18.881226,-48.825073,,-0.226097636,1.348546387,6.73251909,0.439086533,0.161499945,-0.132287545,15.82835621,-18.76452415,-48.67236172
8.06E+12,-0.10990906,1.4902802,6.447983,0.51708984,0.11628723,-0.07066345,15.867615,-18.881226,-48.825073,,-0.168003348,1.419413294,6.590251045,0.478088186,0.138893587,-0.101475498,15.8479856,-18.82287507,-48.74871736
8.06E+12,0.021148682,1.6726532,6.5219727,0.5394287,0.087905884,-0.042007446,15.896606,-18.649292,-46.458435,,-0.073427333,1.546033247,6.556111872,0.508758443,0.113399736,-0.071741472,15.8722958,-18.73608354,-47.60357618
8.06E+12,0.13685608,1.8538666,6.5274353,0.55104065,0.057052612,-0.013626099,15.896606,-18.649292,-46.458435,,0.031714373,1.699949923,6.541773586,0.529899547,0.085226174,-0.042683785,15.8844509,-18.69268777,-47.03100559
8.06E+12,0.2710266,2.0585632,6.6090546,0.55274963,0.028747559,0.007873535,15.896606,-18.649292,-46.458435,,0.151370487,1.879256562,6.575414093,0.541324588,0.056986866,-0.017405125,15.89052845,-18.67098988,-46.7447203
8.06E+12,0.3751526,2.1474915,6.6917267,0.5464783,0.007644653,0.018615723,15.896606,-18.649292,-46.458435,,0.263261543,2.013374031,6.633570397,0.543901444,0.03231576,0.000605299,15.89356723,-18.66014094,-46.60157765
8.06E+12,0.4827118,2.221405,7.044632,0.5277405,-0.003753662,0.0209198,15.896606,-18.621826,-46.255493,,0.372986672,2.117389515,6.839101198,0.535820972,0.014281049,0.010762549,15.89508661,-18.64098347,-46.42853532
8.06E+12,0.52742004,2.3084106,7.3995056,0.49479675,-0.002243042,0.014465332,15.896606,-18.621826,-46.255493,,0.450203356,2.212900058,7.119303399,0.515308861,0.006019003,0.012613941,15.89584631,-18.63140474,-46.34201416
8.06E+12,0.5950928,2.3030548,7.7323,0.45202637,0.015258789,0.005477905,15.896606,-18.621826,-46.255493,,0.522648078,2.257977429,7.4258017,0.483667616,0.010638896,0.009045923,15.89622615,-18.62661537,-46.29875358
8.06E+12,0.5066681,2.3128662,8.050262,0.40133667,0.048095703,-0.004928589,15.896606,-18.621826,-46.255493,,0.514658089,2.285421814,7.73803185,0.442502143,0.0293673,0.002058667,15.89641608,-18.62422068,-46.27712329
8.06E+12,0.35058594,2.3694458,8.416443,0.3539276,0.08929443,-0.01789856,16.914368,-19.981384,-50.23346,,0.432622014,2.327433807,8.077237425,0.398214871,0.059330865,-0.007919946,16.40539204,-19.30280234,-48.25529165
8.06E+12,0.12394714,2.3419495,8.834946,0.30581665,0.13926697,-0.027893066,16.914368,-19.981384,-50.23346,,0.278284577,2.334691654,8.456091712,0.352015761,0.099298917,-0.017906506,16.65988002,-19.64209317,-49.24437582
8.06E+12,-0.13023376,2.3396454,9.227432,0.25901794,0.1925354,-0.03555298,16.914368,-19.981384,-50.23346,,0.074025409,2.337168527,8.841761856,0.30551685,0.145917159,-0.026729743,16.78712401,-19.81173859,-49.73891791
8.06E+12,-0.20698547,2.2448425,9.608917,0.25901794,0.1925354,-0.03555298,16.914368,-19.981384,-50.23346,,-0.066480031,2.291005513,9.225339428,0.282267395,0.169226279,-0.031141362,16.850746,-19.89656129,-49.98618896
8.06E+12,-0.3821411,2.1122284,9.974289,0.18312073,0.29148865,-0.028289795,16.075134,-19.483948,-47.781372,,-0.224310565,2.201616957,9.599814214,0.232694063,0.230357465,-0.029715578,16.46294,-19.69025465,-48.88378048
8.06E+12,-0.5396576,1.9894714,10.193192,0.15408325,0.3368683,-0.013702393,16.075134,-19.483948,-47.781372,,-0.381984083,2.095544178,9.896503107,0.193388656,0.283612882,-0.021708986,16.269037,-19.58710132,-48.33257624
8.06E+12,-0.6281738,1.9180298,10.571503,0.13522339,0.36886597,0.010360718,16.075134,-19.483948,-47.781372,,-0.505078941,2.006786989,10.23400305,0.164306023,0.326239426,-0.005674134,16.1720855,-19.53552466,-48.05697412
8.06E+12,-0.65771484,2.0454865,10.898239,0.12748718,0.37773132,0.043701172,16.075134,-19.483948,-47.781372,,-0.581396891,2.026136745,10.56612103,0.145896602,0.351985373,0.019013519,16.12360975,-19.50973633,-47.91917306
8.06E+12,-0.51626587,2.1220703,11.127136,0.13742065,0.358963,0.081222534,16.075134,-19.483948,-47.781372,,-0.54883138,2.074103522,10.84662851,0.141658626,0.355474187,0.050118027,16.09937188,-19.49684217,-47.85027253
8.06E+12,-0.40881348,2.1974487,11.415787,0.16304016,0.30828857,0.12020874,16.075134,-19.483948,-47.781372,,-0.47882243,2.135776111,11.13120776,0.152349393,0.331881378,0.085163383,16.08725294,-19.49039508,-47.81582226
8.06E+12,-0.32347107,2.2518005,11.737305,0.19676208,0.23797607,0.15090942,16.075134,-19.483948,-47.781372,,-0.40114675,2.193788306,11.43425638,0.174555736,0.284928724,0.118036402,16.08119347,-19.48717154,-47.79859713
8.06E+12,-0.16003418,2.3201141,11.978165,0.23861694,0.14170837,0.18185425,16.099548,-19.52362,-47.76764,,-0.280590465,2.256951203,11.70621069,0.206586338,0.213318547,0.149945326,16.09037073,-19.50539577,-47.78311857
8.06E+12,0.023544312,2.3704987,12.363388,0.27096558,0.05078125,0.20397949,16.099548,-19.52362,-47.76764,,-0.128523077,2.313724951,12.03479934,0.238775959,0.132049899,0.176962408,16.09495937,-19.51450789,-47.77537928
8.06E+12,0.18632507,2.484558,12.725143,0.29170227,-0.026855469,0.22229004,16.099548,-19.52362,-47.76764,,0.028900997,2.399141476,12.37997117,0.265239115,0.052597215,0.199626224,16.09725368,-19.51906394,-47.77150964
8.06E+12,0.2441101,2.573471,13.100739,0.29989624,-0.08708191,0.23468018,16.099548,-19.52362,-47.76764,,0.136505548,2.486306238,12.74035509,0.282567677,-0.017242348,0.217153202,16.09840084,-19.52134197,-47.76957482
8.06E+12,0.16622925,2.5622253,13.455551,0.29914856,-0.13208008,0.23942566,16.905212,-20.703125,-47.8714,,0.151367399,2.524265769,13.09795304,0.290858119,-0.074661214,0.228289431,16.50180642,-20.11223349,-47.82048741
8.06E+12,0.029663086,2.4618988,13.926773,0.29356384,-0.16651917,0.23701477,16.905212,-20.703125,-47.8714,,0.090515243,2.493082284,13.51236302,0.292210979,-0.120590192,0.2326521,16.70350921,-20.40767924,-47.84594371
8.06E+12,-0.024002075,2.346817,14.434708,0.28701782,-0.19198608,0.23582458,16.905212,-20.703125,-47.8714,,0.033256584,2.419949642,13.97353551,0.2896144,-0.156288136,0.23423834,16.80436061,-20.55540212,-47.85867185
8.06E+12,0.044937134,2.2420502,14.850937,0.2831726,-0.1974945,0.24241638,16.905212,-20.703125,-47.8714,,0.039096859,2.330999921,14.41223626,0.2863935,-0.176891318,0.23832736,16.8547863,-20.62926356,-47.86503593
8.06E+12,0.16168213,2.2161255,15.232025,0.28251648,-0.17481995,0.2570343,16.583252,-21.025085,-46.925354,,0.100389494,2.273562711,14.82213063,0.28445499,-0.175855634,0.24768083,16.71901915,-20.82717428,-47.39519496
8.06E+12,0.23498535,2.2029572,15.523285,0.28160095,-0.11891174,0.27694702,16.583252,-21.025085,-46.925354,,0.167687422,2.238259955,15.17270781,0.28302797,-0.147383687,0.262313925,16.65113558,-20.92612964,-47.16027448
8.06E+12,0.28837585,2.1979675,15.584335,0.28038025,-0.030761719,0.29632568,16.583252,-21.025085,-46.925354,,0.228031636,2.218113728,15.37852141,0.28170411,-0.089072703,0.279319803,16.61719379,-20.97560732,-47.04281424
8.06E+12,0.31913757,2.230072,15.383347,0.28129578,0.08943176,0.31271362,16.583252,-21.025085,-46.925354,,0.273584603,2.224092864,15.3809342,0.281499945,0.000179529,0.296016711,16.60022289,-21.00034616,-46.98408412
8.06E+12,0.35131836,2.3168945,15.074524,0.28411865,0.24006653,0.32867432,16.564941,-21.118164,-46.798706,,0.312451482,2.270493682,15.2277291,0.282809297,0.120123029,0.312345516,16.58258195,-21.05925508,-46.89139506
8.06E+12,0.4801178,2.4151306,14.627945,0.2879486,0.3889618,0.34228516,16.564941,-21.118164,-46.798706,,0.396284641,2.342812141,14.92783705,0.285378949,0.254542415,0.327315338,16.57376147,-21.08870954,-46.84505053
8.06E+12,0.633255,2.475647,14.004715,0.29115295,0.5274811,0.35316467,16.564941,-21.118164,-46.798706,,0.51476982,2.40922957,14.46627603,0.288265949,0.391011757,0.340240004,16.56935124,-21.10343677,-46.82187827
8.06E+12,0.7092285,2.5268707,13.249985,0.29455566,0.6462555,0.35873413,16.564941,-21.118164,-46.798706,,0.61199916,2.468050135,13.85813051,0.291410805,0.518633629,0.349487067,16.56714612,-21.11080039,-46.81029213
8.06E+12,0.73550415,2.6030426,12.409454,0.29580688,0.7346344,0.35614014,16.30249,-22.036743,-45.81604,,0.673751655,2.535546368,13.13379226,0.293608842,0.626634014,0.352813603,16.43481806,-21.57377169,-46.31316607
8.06E+12,0.7465515,2.7273407,11.577911,0.2884674,0.7955017,0.34701538,16.30249,-22.036743,-45.81604,,0.710151578,2.631443534,12.35585163,0.291038121,0.711067857,0.349914492,16.36865403,-21.80525735,-46.06460303
8.06E+12,0.80218506,2.8598022,10.89917,0.26649475,0.82099915,0.3330078,16.30249,-22.036743,-45.81604,,0.756168319,2.745622867,11.62751081,0.278766436,0.766033504,0.341461146,16.33557201,-21.92100017,-45.94032152
8.06E+12,0.8529968,3.0390778,10.404327,0.22990417,0.8070984,0.3148346,16.30249,-22.036743,-45.81604,,0.804582559,2.892350333,11.01591891,0.254335303,0.786565952,0.328147873,16.31903101,-21.97887159,-45.87818076
8.06E+12,0.8726654,3.2007294,10.07579,0.18115234,0.7564392,0.28570557,15.553284,-23.085022,-46.255493,,0.83862398,3.046539867,10.54585445,0.217743821,0.771502576,0.306926721,15.9361575,-22.53194679,-46.06683688
8.06E+12,0.8067169,3.2804565,9.869049,0.122665405,0.6737366,0.24049377,15.553284,-23.085022,-46.255493,,0.82267044,3.163498183,10.20745173,0.170204613,0.722619588,0.273710246,15.74472075,-22.8084844,-46.16116494
8.06E+12,0.7281952,3.223465,9.812027,0.058120728,0.57366943,0.18702698,15.553284,-23.085022,-46.255493,,0.77543282,3.193481592,10.00973936,0.114162671,0.648144509,0.230368613,15.64900238,-22.9467532,-46.20832897
8.06E+12,0.6248779,3.105774,9.8558655,-0.018508911,0.44891357,0.12362671,15.553284,-23.085022,-46.255493,,0.70015536,3.149627796,9.932802432,0.04782688,0.548529039,0.176997661,15.60114319,-23.0158876,-46.23191098
8.06E+12,0.44361877,2.9310913,10.173187,-0.09939575,0.3179779,0.056900024,15.855408,-22.903442,-46.195984,,0.571887065,3.040359548,10.05299472,-0.025784435,0.43325347,0.116948843,15.72827559,-22.9596648,-46.21394749
8.06E+12,0.29273987,2.7152405,10.764084,-0.18457031,0.19302368,-0.007217407,15.855408,-22.903442,-46.195984,,0.432313467,2.877800024,10.40853936,-0.105177373,0.313138575,0.054865718,15.7918418,-22.9315534,-46.20496575
8.06E+12,0.20674133,2.5185394,11.5589905,-0.2781067,0.08786011,-0.06628418,15.855408,-22.903442,-46.195984,,0.319527399,2.698169712,10.98376493,-0.191642036,0.200499342,-0.005709231,15.8236249,-22.9174977,-46.20047487
8.06E+12,0.06628418,2.269928,12.393127,-0.3746643,0.014755249,-0.11677551,15.855408,-22.903442,-46.195984,,0.192905789,2.484048856,11.68844596,-0.283153168,0.107627296,-0.061242371,15.83951645,-22.91046985,-46.19822944
8.06E+12,-0.2467041,1.9819794,13.09375,-0.4593506,-0.022262573,-0.1613617,17.471313,-22.325134,-45.854187,,-0.026899155,2.233014128,12.39109798,-0.371251884,0.042682361,-0.111302035,16.65541472,-22.61780192,-46.02620822
8.06E+12,-0.6835327,1.7196198,13.707321,-0.54019165,-0.033309937,-0.20703125,17.471313,-22.325134,-45.854187,,-0.355215928,1.976316964,13.04920949,-0.455721767,0.004686212,-0.159166643,17.06336386,-22.47146796,-45.94019761
8.06E+12,-1.1164856,1.3509064,14.393417,-0.6005249,-0.02017212,-0.24221802,17.471313,-22.325134,-45.854187,,-0.735850764,1.663611682,13.72131325,-0.528123334,-0.007742954,-0.200692331,17.26733843,-22.39830098,-45.8971923
8.06E+12,-1.5182953,1.0512085,14.943237,-0.63635254,0.004226685,-0.26506042,17.471313,-22.325134,-45.854187,,-1.127073032,1.357410091,14.33227512,-0.582237937,-0.001758135,-0.232876376,17.36932572,-22.36171749,-45.87568965
8.06E+12,-1.8642578,0.57676697,15.385178,-0.64959717,0.04182434,-0.2693634,18.299866,-23.428345,-45.585632,,-1.495665416,0.96708853,14.85872656,-0.615917553,0.020033103,-0.251119888,17.83459586,-22.89503125,-45.73066083
8.06E+12,-2.1895294,0.24316406,15.450699,-0.6351929,0.0967865,-0.2546997,18.299866,-23.428345,-45.585632,,-1.842597408,0.605126295,15.15471278,-0.625555227,0.058409801,-0.252909794,18.06723093,-23.16168812,-45.65814641
8.06E+12,-2.4328766,0.009948731,15.172806,-0.60198975,0.164505,-0.22349548,18.299866,-23.428345,-45.585632,,-2.137737004,0.307537513,15.16375939,-0.613772488,0.111457401,-0.238202637,18.18354846,-23.29501656,-45.62188921
8.06E+12,-2.5327911,-0.0499115,14.727493,-0.54797363,0.25100708,-0.16960144,18.38379,-22.833252,-45.50171,,-2.335264052,0.128813006,14.9456262,-0.580873059,0.18123224,-0.203902038,18.28366923,-23.06413428,-45.5617996
8.06E+12,-2.4565735,-2.29E-04,14.137329,-0.48242188,0.3266449,-0.10328674,18.38379,-22.833252,-45.50171,,-2.395918776,0.064292062,14.5414776,-0.53164747,0.25393857,-0.153594389,18.33372962,-22.94869314,-45.5317548
8.06E+12,-2.4464417,0.03627014,13.5278015,-0.40567017,0.3738098,-0.033493042,18.38379,-22.833252,-45.50171,,-2.421180238,0.050281101,14.03463955,-0.46865882,0.313874185,-0.093543716,18.35875981,-22.89097257,-45.5167324
8.06E+12,-2.3168488,0.10151672,12.730484,-0.3131256,0.37971497,0.032836914,18.38379,-22.833252,-45.50171,,-2.369014519,0.075898911,13.38256177,-0.39089221,0.346794578,-0.030353401,18.3712749,-22.86211229,-45.5092212
8.06E+12,-2.1134796,0.09132385,11.928329,-0.20674133,0.34843445,0.09399414,18.50586,-20.79773,-45.736694,,-2.241247059,0.08361138,12.65544539,-0.29881677,0.347614514,0.03182037,18.43856745,-21.82992114,-45.6229576
8.06E+12,-1.8556976,0.2532196,11.067337,-0.10610962,0.29562378,0.14653015,18.50586,-20.79773,-45.736694,,-2.04847233,0.16841549,11.86139119,-0.202463195,0.321619147,0.08917526,18.47221373,-21.31382557,-45.6798258
8.06E+12,-1.6065216,0.48875427,10.383545,-0.004776001,0.21287537,0.19470215,18.50586,-20.79773,-45.736694,,-1.827496965,0.32858488,11.1224681,-0.103619598,0.267247258,0.141938705,18.48903686,-21.05577779,-45.7082599
8.06E+12,-1.2577057,0.72566223,9.682297,0.07521057,0.11639404,0.22718811,18.50586,-20.79773,-45.736694,,-1.542601332,0.527123555,10.40238255,-0.014204514,0.191820649,0.184563407,18.49744843,-20.92675389,-45.72247695
8.06E+12,-0.92607117,0.8943176,9.066269,0.14349365,0.009017944,0.24549866,18.128967,-20.166016,-47.0932,,-1.234336251,0.710720578,9.734325774,0.064644568,0.100419297,0.215031034,18.31320772,-20.54638495,-46.40783848
8.06E+12,-0.88578796,0.99279785,8.579025,0.19773865,-0.10379028,0.24516296,18.128967,-20.166016,-47.0932,,-1.060062106,0.851759214,9.156675387,0.131191609,-0.001685492,0.230096997,18.22108736,-20.35620047,-46.75051924
8.06E+12,-1.0155945,1.0437775,8.193527,0.23600769,-0.21800232,0.22457886,18.128967,-20.166016,-47.0932,,-1.037828303,0.947768357,8.675101194,0.18359965,-0.109843906,0.227337928,18.17502718,-20.26110824,-46.92185962
8.06E+12,-1.3405457,1.0354614,7.788788,0.26089478,-0.32766724,0.19644165,18.128967,-20.166016,-47.0932,,-1.189187001,0.991614878,8.231944597,0.222247215,-0.218755573,0.211889789,18.15199709,-20.21356212,-47.00752981
8.06E+12,-1.7211151,0.8362274,7.359436,0.27497864,-0.4351654,0.16496277,18.128967,-19.839478,-46.56067,,-1.455151051,0.913921139,7.795690298,0.248612927,-0.326960486,0.18842628,18.14048204,-20.02652006,-46.7840999
8.06E+12,-1.8181458,0.6520691,6.7977753,0.2720642,-0.5150757,0.14524841,18.128967,-19.839478,-46.56067,,-1.636648425,0.78299512,7.296732799,0.260338564,-0.421018093,0.166837345,18.13472452,-19.93299903,-46.67238495
8.06E+12,-1.649704,0.60498047,6.532196,0.2454834,-0.5648804,0.14234924,18.128967,-19.839478,-46.56067,,-1.643176213,0.693987795,6.9144644,0.252910982,-0.492949247,0.154593292,18.13184576,-19.88623851,-46.61652748
8.06E+12,-1.4893036,0.5784149,6.564987,0.18626404,-0.5839081,0.15080261,18.128967,-19.839478,-46.56067,,-1.566239906,0.636201347,6.7397257,0.219587511,-0.538428673,0.152697951,18.13040638,-19.86285826,-46.58859874
8.06E+12,-1.4064178,0.5782623,6.7786713,0.100234985,-0.5794983,0.15914917,18.47229,-19.711304,-45.86487,,-1.486328853,0.607231824,6.7591985,0.159911248,-0.558963487,0.155923561,18.30134819,-19.78708113,-46.22673437
8.06E+12,-1.3098907,0.5339813,7.073059,-0.002807617,-0.5487976,0.16435242,18.47229,-19.711304,-45.86487,,-1.398109777,0.570606562,6.91612875,0.078551815,-0.553880543,0.16013799,18.3868191,-19.74919256,-46.04580218
8.06E+12,-1.2042084,0.45700073,7.1989136,-0.11222839,-0.48916626,0.1687622,18.47229,-19.711304,-45.86487,,-1.301159088,0.513803646,7.057521175,-0.016838287,-0.521523402,0.164450095,18.42955455,-19.73024828,-45.95533609
8.06E+12,-1.0693207,0.391037,7.288147,-0.2053833,-0.41481018,0.17370605,18.47229,-19.711304,-45.86487,,-1.185239894,0.452420323,7.172834087,-0.111110794,-0.468166791,0.169078073,18.45092227,-19.72077614,-45.91010305
8.06E+12,-0.9448395,0.38409424,7.3704376,-0.28326416,-0.33488464,0.17648315,19.158936,-20.852661,-46.757507,,-1.065039697,0.418257281,7.271635844,-0.197187477,-0.401525715,0.172780611,18.80492914,-20.28671857,-46.33380502
8.06E+12,-0.89463806,0.44206238,7.5071716,-0.34432983,-0.26339722,0.17250061,19.158936,-20.852661,-46.757507,,-0.979838879,0.430159831,7.389403722,-0.270758653,-0.332461468,0.172640611,18.98193257,-20.56968979,-46.54565601
8.06E+12,-0.82910156,0.446167,7.755905,-0.385437,-0.21234131,0.16081238,19.158936,-20.852661,-46.757507,,-0.904470219,0.438163415,7.572654361,-0.328097827,-0.272401389,0.166726495,19.07043428,-20.71117539,-46.65158151
8.06E+12,-0.8075714,0.2965393,7.830658,-0.4028015,-0.17938232,0.14376831,19.158936,-20.852661,-46.757507,,-0.85602081,0.367351358,7.70165618,-0.365449663,-0.225891854,0.155247403,19.11468514,-20.7819182,-46.70454425
8.06E+12,-0.8923645,0.119262695,7.694275,-0.39027405,-0.15766907,0.12452698,18.492126,-21.51947,-46.366882,,-0.874192655,0.243307026,7.69796559,-0.377861857,-0.191780462,0.139887191,18.80340557,-21.1506941,-46.53571313
8.06E+12,-1.039917,0.021820068,7.466797,-0.35424805,-0.13508606,0.1118927,18.492126,-21.51947,-46.366882,,-0.957054827,0.132563547,7.582381295,-0.366054953,-0.163433261,0.125889946,18.64776579,-21.33508205,-46.45129756
8.06E+12,-1.1770935,-0.006668091,7.2879944,-0.30789185,-0.109313965,0.10864258,18.492126,-21.51947,-46.366882,,-1.067074164,0.062947728,7.435187848,-0.336973402,-0.136373613,0.117266263,18.56994589,-21.42727602,-46.40908978
8.06E+12,-1.1873627,0.017471313,7.1574554,-0.25912476,-0.08735657,0.11433411,18.492126,-21.51947,-46.366882,,-1.127218432,0.040209521,7.296321624,-0.298049081,-0.111865092,0.115800186,18.53103595,-21.47337301,-46.38798589
8.06E+12,-1.1709747,0.09164429,6.840317,-0.20689392,-0.07136536,0.12809753,17.718506,-21.740723,-45.481873,,-1.149096566,0.065926905,7.068319312,-0.2524715,-0.091615226,0.121948858,18.12477097,-21.60704801,-45.93492945
8.06E+12,-1.0628204,0.1867218,6.3727417,-0.14178467,-0.06010437,0.15037537,17.718506,-21.740723,-45.481873,,-1.105958483,0.126324353,6.720530506,-0.197128085,-0.075859798,0.136162114,17.92163849,-21.6738855,-45.70840122
8.06E+12,-0.907959,0.28186035,5.901169,-0.06956482,-0.06210327,0.1765747,17.718506,-21.740723,-45.481873,,-1.006958741,0.204092351,6.310849753,-0.133346453,-0.068981534,0.156368407,17.82007224,-21.70730425,-45.59513711
8.06E+12,-0.70339966,0.35650635,5.5874023,-0.001373291,-0.07434082,0.20202637,17.718506,-21.740723,-45.481873,,-0.855179201,0.280299351,5.949126026,-0.067359872,-0.071661177,0.179197389,17.76928912,-21.72401363,-45.53850506
8.06E+12,-0.5760956,0.47669983,5.2868958,0.057876587,-0.08773804,0.2238617,18.128967,-20.509338,-45.082092,,-0.7156374,0.37849959,5.618010913,-0.004741642,-0.079699608,0.201529544,17.94912806,-21.11667581,-45.31029853
8.06E+12,-0.49635315,0.5385742,4.891388,0.10444641,-0.09310913,0.23776245,18.128967,-20.509338,-45.082092,,-0.605995275,0.458536895,5.254699457,0.049852384,-0.086404369,0.219645997,18.03904753,-20.81300691,-45.19619526
8.06E+12,-0.31254578,0.6773224,4.481186,0.13323975,-0.08303833,0.24743652,18.128967,-20.509338,-45.082092,,-0.459270528,0.567929648,4.867942728,0.091546067,-0.08472135,0.233541259,18.08400727,-20.66117245,-45.13914363
8.06E+12,-0.07434082,0.8686371,4.1424103,0.14923096,-0.055648804,0.25680542,18.128967,-20.509338,-45.082092,,-0.266805674,0.718283374,4.505176514,0.120388513,-0.070185077,0.245173339,18.10648713,-20.58525523,-45.11061782
8.06E+12,-0.11581421,0.9630432,3.7897797,0.14552307,-0.017333984,0.25912476,17.185974,-19.725037,-46.00067,,-0.191309942,0.840663287,4.147478107,0.132955792,-0.04375953,0.25214905,17.64623057,-20.15514611,-45.55564391
8.06E+12,-0.2637329,0.9971161,3.3305206,0.123565674,0.031692505,0.253479,17.185974,-19.725037,-46.00067,,-0.227521421,0.918889693,3.738999354,0.128260733,-0.006033513,0.252814025,17.41610228,-19.94009156,-45.77815695
8.06E+12,-0.17033386,1.0893097,3.1091766,0.08782959,0.08668518,0.24497986,17.185974,-19.725037,-46.00067,,-0.19892764,1.004099697,3.424087977,0.108045161,0.040325834,0.248896942,17.30103814,-19.83256428,-45.88941348
8.06E+12,0.018356323,1.2470245,3.2034302,0.038528442,0.13845825,0.2402649,17.185974,-19.725037,-46.00067,,-0.090285659,1.125562098,3.313759088,0.073286802,0.089392042,0.244580921,17.24350607,-19.77880064,-45.94504174
8.06E+12,0.34797668,1.4527893,3.0635834,-0.014312744,0.16726685,0.23617554,16.473389,-19.522095,-46.539307,,0.128845511,1.289175699,3.188671244,0.029487029,0.128329446,0.240378231,16.85844754,-19.65044782,-46.24217437
8.06E+12,0.47364807,1.6996002,3.1017761,-0.068573,0.18495178,0.22833252,16.473389,-19.522095,-46.539307,,0.30124679,1.49438795,3.145223672,-0.019542986,0.156640613,0.234355375,16.66591827,-19.58627141,-46.39074068
8.06E+12,0.44989014,1.7277069,3.2016907,-0.113204956,0.19128418,0.20321655,16.473389,-19.522095,-46.539307,,0.375568465,1.611047425,3.173457186,-0.066373971,0.173962396,0.218785963,16.56965363,-19.5541832,-46.46502384
8.06E+12,0.2781372,1.7178802,3.4447021,-0.15470886,0.17623901,0.16239929,16.926575,-20.33844,-45.9198,,0.326852833,1.664463812,3.309079643,-0.110541415,0.175100703,0.190592626,16.74811432,-19.9463116,-46.19241192
8.06E+12,0.10774231,1.596756,3.6008759,-0.18785095,0.14466858,0.12034607,16.926575,-20.33844,-45.9198,,0.217297571,1.630609906,3.454977772,-0.149196183,0.159884642,0.155469348,16.83734466,-20.1423758,-46.05610596
8.06E+12,-0.11552429,1.511734,3.9459991,-0.21109009,0.11260986,0.08488464,16.926575,-20.33844,-45.9198,,0.050886641,1.571171953,3.700488436,-0.180143136,0.136247251,0.120176994,16.88195983,-20.2404079,-45.98795298
8.06E+12,-0.47042847,1.43927,4.424118,-0.22488403,0.07662964,0.056777954,16.926575,-20.33844,-45.9198,,-0.209770915,1.505220977,4.062303218,-0.202513583,0.106438445,0.088477474,16.90426741,-20.28942395,-45.95387649
8.06E+12,-0.771225,1.2848358,4.88002,-0.22451782,0.023773193,0.038253784,16.835022,-20.791626,-46.53778,,-0.490497957,1.395028388,4.471161609,-0.213515702,0.065105819,0.063365629,16.86964471,-20.54052498,-46.24582825
8.06E+12,-0.9735565,1.1335602,5.400528,-0.21191406,-0.02609253,0.03274536,16.835022,-20.791626,-46.53778,,-0.732027229,1.264294294,4.935844804,-0.212714881,0.019506645,0.048055495,16.85233335,-20.66607549,-46.39180412
8.06E+12,-1.0096588,1.0335388,5.9543,-0.18791199,-0.07180786,0.041427612,16.835022,-20.791626,-46.53778,,-0.870843014,1.148916547,5.445072402,-0.200313435,-0.026150608,0.044741553,16.84367768,-20.72885074,-46.46479206
8.06E+12,-0.99064636,1.0205688,6.1832275,-0.15200806,-0.1085968,0.06222534,16.835022,-20.791626,-46.53778,,-0.930744687,1.084742674,5.814149951,-0.176160748,-0.067373704,0.053483447,16.83934984,-20.76023837,-46.50128603
8.06E+12,-0.8486786,1.0730743,6.4565887,-0.10713196,-0.13215637,0.0921936,17.033386,-20.733643,-46.458435,,-0.889711644,1.078908487,6.135369326,-0.141646354,-0.099765037,0.072838523,16.93636792,-20.74694069,-46.47986052
8.06E+12,-0.69506836,1.1169281,6.630127,-0.056121826,-0.14613342,0.12327576,17.033386,-20.733643,-46.458435,,-0.792390002,1.097918293,6.382748163,-0.09888409,-0.122949228,0.098057142,16.98487696,-20.74029184,-46.46914776
8.06E+12,-0.61735535,1.1234436,6.689743,0.005905151,-0.1568451,0.15080261,17.033386,-20.733643,-46.458435,,-0.704872676,1.110680947,6.536245581,-0.046489469,-0.139897164,0.124429876,17.00913148,-20.73696742,-46.46379138
8.06E+12,-0.5583496,1.1719208,6.5920258,0.06355286,-0.1558075,0.17111206,17.033386,-20.733643,-46.458435,,-0.631611138,1.141300873,6.564135691,0.008531695,-0.147852332,0.147770968,17.02125874,-20.73530521,-46.46111319
8.06E+12,-0.40272522,1.3696289,6.2445984,0.10942078,-0.13645935,0.18714905,17.269897,-20.33844,-45.9198,,-0.517168179,1.255464887,6.404367045,0.058976238,-0.142155841,0.167460009,17.14557787,-20.53687261,-46.19045659
8.06E+12,-0.17451477,1.6456146,5.998886,0.13409424,-0.10083008,0.20132446,17.269897,-20.33844,-45.9198,,-0.345841474,1.450539743,6.201626523,0.096535239,-0.121492961,0.184392234,17.20773743,-20.4376563,-46.0551283
8.06E+12,0.07608032,1.9481354,5.9562073,0.13070679,-0.05644226,0.20832825,17.269897,-20.33844,-45.9198,,-0.134880577,1.699337572,6.078916911,0.113621014,-0.08896761,0.196360242,17.23881722,-20.38804815,-45.98746415
8.06E+12,0.34088135,2.1467133,5.98584,0.10083008,-0.015319824,0.20046997,17.269897,-20.33844,-45.9198,,0.103000386,1.923025436,6.032378456,0.107225547,-0.052143717,0.198415106,17.25435711,-20.36324408,-45.95363207
8.06E+12,0.57366943,2.2540894,6.2050323,0.047668457,0.02178955,0.17428589,16.860962,-19.93103,-46.318054,,0.338334908,2.088557418,6.118705378,0.077447002,-0.015177084,0.186350498,17.05765955,-20.14713704,-46.13584304
8.06E+12,0.64793396,2.31781,6.5653687,-0.013153076,0.052734375,0.13539124,16.860962,-19.93103,-46.318054,,0.493134434,2.203183709,6.342037039,0.032146963,0.018778646,0.160870869,16.95931078,-20.03908352,-46.22694852
8.06E+12,0.52023315,2.2936249,7.064575,-0.0770874,0.07550049,0.08468628,16.860962,-19.93103,-46.318054,,0.506683792,2.248404304,6.703306019,-0.022470218,0.047139568,0.122778575,16.91013639,-19.98505676,-46.27250126
8.06E+12,0.30111694,2.2477264,7.642456,-0.13523865,0.08255005,0.025421143,16.860962,-19.93103,-46.318054,,0.403900366,2.248065352,7.17288101,-0.078854434,0.064844809,0.074099859,16.88554919,-19.95804338,-46.29527763
8.06E+12,0.004638672,2.1503754,8.132355,-0.17582703,0.07194519,-0.033218384,16.061401,-21.217346,-46.691895,,0.204269519,2.199220376,7.652618005,-0.127340732,0.068394999,0.020440737,16.4734751,-20.58769469,-46.49358631
8.06E+12,-0.3222351,1.9674988,8.494537,-0.1943512,0.043884277,-0.087905884,16.061401,-21.217346,-46.691895,,-0.05898279,2.083359588,8.073577502,-0.160845966,0.056139638,-0.033732573,16.26743805,-20.90252034,-46.59274066
8.06E+12,-0.57173157,1.763382,8.868851,-0.18998718,5.19E-04,-0.1335907,16.061401,-21.217346,-46.691895,,-0.31535718,1.923370794,8.471214251,-0.175416573,0.028329219,-0.083661637,16.16441952,-21.05993317,-46.64231783
8.06E+12,-0.7931824,1.6165466,9.279129,-0.17253113,-0.050872803,-0.16156006,16.061401,-21.217346,-46.691895,,-0.55426979,1.769958697,8.875171626,-0.173973852,-0.011271792,-0.122610848,16.11291026,-21.13863959,-46.66710641
8.06E+12,-1.0086212,1.510086,9.813293,-0.15437317,-0.106048584,-0.17524719,15.725708,-22.227478,-46.757507,,-0.781445495,1.640022349,9.344232313,-0.164173511,-0.058660188,-0.148929019,15.91930913,-21.68305879,-46.71230671
8.06E+12,-1.1596985,1.4402008,10.224487,-0.13798523,-0.15908813,-0.17402649,15.725708,-22.227478,-46.757507,,-0.970571998,1.540111574,9.784359656,-0.15107937,-0.108874159,-0.161477755,15.82250857,-21.9552684,-46.73490685
8.06E+12,-1.1584625,1.384613,10.598694,-0.1210022,-0.20315552,-0.15835571,15.725708,-22.227478,-46.757507,,-1.064517249,1.462362287,10.19152683,-0.136040785,-0.15601484,-0.159916732,15.77410828,-22.0913732,-46.74620693
8.06E+12,-0.9692383,1.4548492,11.019012,-0.10069275,-0.24316406,-0.12988281,15.725708,-22.227478,-46.757507,,-1.016877774,1.458605744,10.60526941,-0.118366768,-0.19958945,-0.144899771,15.74990814,-22.1594256,-46.75185696
8.06E+12,-0.64390564,1.6560516,11.492462,-0.08016968,-0.27897644,-0.0952301,15.609741,-21.426392,-47.314453,,-0.830391707,1.557328672,11.04886571,-0.099268224,-0.239282945,-0.120064936,15.67982457,-21.7929088,-47.03315498
8.06E+12,-0.33143616,1.812149,12.142105,-0.062805176,-0.3151245,-0.06561279,15.609741,-21.426392,-47.314453,,-0.580913934,1.684738836,11.59548535,-0.0810367,-0.277203722,-0.092838863,15.64478279,-21.6096504,-47.17380399
8.06E+12,-0.034622192,1.8751678,12.65654,-0.04321289,-0.34840393,-0.047714233,15.609741,-21.426392,-47.314453,,-0.307768063,1.779953318,12.12601268,-0.062124795,-0.312803826,-0.070276548,15.62726189,-21.5180212,-47.2441285
8.06E+12,0.18927002,1.8073425,12.8832245,-0.025756836,-0.3637848,-0.0440979,15.609741,-21.426392,-47.314453,,-0.059249021,1.793647909,12.50461859,-0.043940815,-0.338294313,-0.057187224,15.61850145,-21.4722066,-47.27929075
8.06E+12,0.26089478,1.7250977,12.878387,-0.013397217,-0.35139465,-0.05027771,15.6692505,-20.213318,-46.34857,,0.100822879,1.759372804,12.69150279,-0.028669016,-0.344844482,-0.053732467,15.64387597,-20.8427623,-46.81393037
8.06E+12,0.23069763,1.6873627,12.926331,-0.015228272,-0.3086548,-0.064453125,15.6692505,-20.213318,-46.34857,,0.165760255,1.723367752,12.8089169,-0.021948644,-0.326749641,-0.059092796,15.65656324,-20.52804015,-46.58125019
8.06E+12,0.1934967,1.7515259,13.102951,-0.047683716,-0.24279785,-0.084472656,15.6692505,-20.213318,-46.34857,,0.179628477,1.737446826,12.95593395,-0.03481618,-0.284773745,-0.071782726,15.66290687,-20.37067907,-46.46491009
8.06E+12,0.27368164,1.8010406,13.500504,-0.10671997,-0.16053772,-0.10699463,15.6692505,-20.213318,-46.34857,,0.226655059,1.769243713,13.22821897,-0.070768075,-0.222655733,-0.089388678,15.66607868,-20.29199854,-46.40674005
8.06E+12,0.2836609,1.7827759,14.009476,-0.18418884,-0.07055664,-0.12808228,15.725708,-19.822693,-45.751953,,0.255157979,1.776009807,13.61884749,-0.127478457,-0.146606186,-0.108735479,15.69589334,-20.05734577,-46.07934652
8.06E+12,0.1774292,1.7496033,14.494034,-0.26409912,0.01260376,-0.15370178,15.725708,-19.822693,-45.751953,,0.21629359,1.762806553,14.05644074,-0.195788789,-0.067001213,-0.131218629,15.71080067,-19.94001938,-45.91564976
8.06E+12,-0.008102417,1.7757874,15.103668,-0.32763672,0.07910156,-0.18185425,15.725708,-19.822693,-45.751953,,0.104095586,1.769296977,14.58005437,-0.261712754,0.006050173,-0.15653644,15.71825434,-19.88135619,-45.83380138
8.06E+12,-0.22875977,1.7339783,15.530273,-0.3781433,0.13710022,-0.21424866,15.725708,-19.822693,-45.751953,,-0.062332092,1.751637638,15.05516369,-0.319928027,0.071575197,-0.18539255,15.72198117,-19.8520246,-45.79287719
8.06E+12,-0.41764832,1.585907,15.862183,-0.39631653,0.1639862,-0.23883057,16.230774,-20.83435,-48.2193,,-0.239990206,1.668772319,15.45867334,-0.358122279,0.117780698,-0.21211156,15.97637758,-20.3431873,-47.0060886
8.06E+12,-0.5793762,1.3266449,15.934631,-0.37345886,0.15838623,-0.25335693,16.230774,-20.83435,-48.2193,,-0.409683203,1.49770861,15.69665217,-0.365790569,0.138083464,-0.232734245,16.10357579,-20.58876865,-47.6126943
8.06E+12,-0.638443,1.1297302,15.877869,-0.3140564,0.12420654,-0.25543213,16.230774,-20.83435,-48.2193,,-0.524063101,1.313719405,15.78726059,-0.339923485,0.131145002,-0.244083187,16.1671749,-20.71155932,-47.91599715
8.06E+12,-0.6542511,1.0033264,15.751465,-0.3140564,0.12420654,-0.25543213,16.230774,-20.83435,-48.2193,,-0.589157101,1.158522902,15.76936279,-0.326989942,0.127675771,-0.249757659,16.19897445,-20.77295466,-48.06764857
8.06E+12,-0.6839447,0.89250183,15.50444,-0.1394043,0.0052948,-0.22909546,15.258789,-19.789124,-47.97821,,-0.6365509,1.025512366,15.6369014,-0.233197121,0.066485286,-0.239426559,15.72888172,-20.28103933,-48.02292929
8.06E+12,-0.6458435,0.759079,15.128891,-0.04145813,-0.06599426,-0.19989014,15.258789,-19.789124,-47.97821,,-0.6411972,0.892295683,15.3828962,-0.137327626,0.000245513,-0.21965835,15.49383536,-20.03508167,-48.00056964
8.06E+12,-0.40971375,0.89878845,14.665924,0.041641235,-0.12937927,-0.16036987,15.258789,-19.789124,-47.97821,,-0.525455475,0.895542067,15.0244101,-0.047843195,-0.064566879,-0.19001411,15.37631218,-19.91210283,-47.98938982
8.06E+12,-0.004226685,1.1001129,14.015564,0.112594604,-0.1915741,-0.12062073,14.866638,-19.308472,-47.595215,,-0.26484108,0.997827483,14.51998705,0.032375704,-0.128070489,-0.15531742,15.12147509,-19.61028742,-47.79230241
8.06E+12,0.3973236,1.3583221,13.398071,0.16365051,-0.2518921,-0.08760071,14.866638,-19.308472,-47.595215,,0.06624126,1.178074792,13.95902902,0.098013107,-0.189981295,-0.121459065,14.99405655,-19.45937971,-47.69375871
8.06E+12,0.83114624,1.6367493,12.991974,0.18388367,-0.30775452,-0.0690155,14.866638,-19.308472,-47.595215,,0.44869375,1.407412046,13.47550151,0.140948389,-0.248867907,-0.095237282,14.93034727,-19.38392585,-47.64448685
8.06E+12,1.2351837,1.9511261,12.893143,0.17074585,-0.35868835,-0.07485962,14.866638,-19.308472,-47.595215,,0.841938725,1.679269073,13.18432226,0.155847119,-0.303778129,-0.085048451,14.89849264,-19.34619893,-47.61985093
8.06E+12,1.4337463,2.0842743,12.942871,0.1174469,-0.4076538,-0.111587524,15.005493,-19.447327,-48.539734,,1.137842513,1.881771686,13.06359663,0.13664701,-0.355715964,-0.098317988,14.95199282,-19.39676296,-48.07979246
8.06E+12,1.4552307,2.0234985,13.224091,0.039245605,-0.44673157,-0.17092896,15.005493,-19.447327,-48.539734,,1.296536606,1.952635093,13.14384381,0.087946307,-0.401223767,-0.134623474,14.97874291,-19.42204498,-48.30976323
8.06E+12,1.350357,1.8940277,13.647583,-0.05543518,-0.4693451,-0.25273132,15.005493,-19.447327,-48.539734,,1.323446803,1.923331397,13.39571341,0.016255564,-0.435284434,-0.193677397,14.99211795,-19.43468599,-48.42474862
8.06E+12,1.1789398,1.7369995,14.14241,-0.16119385,-0.46728516,-0.34458923,15.005493,-19.447327,-48.539734,,1.251193302,1.830165448,13.7690617,-0.072469143,-0.451284797,-0.269133313,14.99880548,-19.4410065,-48.48224131
