timestamp,accel_x,accel_y,accel_z,gyro_x,gyro_y,gyro_z,mag_x,mag_y,mag_z,,smooth_accel_x,smooth_accel_y,smooth_accel_z,smooth_gyro_x,smooth_gyro_y,smooth_gyro_z,smooth_mag_x,smooth_mag_y,smooth_mag_z
4.71E+12,-1.0392914,1.8793793,8.739746,0,0,0,0,0,0,,-1.0392914,1.8793793,8.739746,0,0,0,0,0,0
4.71E+12,-1.1896515,1.9681702,8.929367,-0.20135498,0.23478699,-0.21360779,0,0,0,,-1.11447145,1.92377475,8.8345565,-0.10067749,0.117393495,-0.106803895,0,0,0
4.71E+12,-1.2612305,1.9304352,9.41069,-0.22703552,0.17553711,-0.19003296,0,0,0,,-1.187850975,1.927104975,9.12262325,-0.163856505,0.146465303,-0.148418428,0,0,0
4.71E+12,-1.322586,1.8239899,9.995331,-0.24101257,0.10745239,-0.16567993,0,0,0,,-1.255218488,1.875547438,9.558977125,-0.202434538,0.126958846,-0.157049179,0,0,0
4.71E+12,-1.4107513,1.7140198,10.620209,-0.23396301,0.03616333,-0.14207458,19.392395,6.4208984,-50.654602,,-1.332984894,1.794783619,10.08959306,-0.218198774,0.081561088,-0.149561879,9.6961975,3.2104492,-25.327301
4.71E+12,-1.3833618,1.6423798,11.2276,-0.20166016,-0.04034424,-0.11618042,19.392395,6.4208984,-50.654602,,-1.358173347,1.718581709,10.65859653,-0.209929467,0.020608424,-0.13287115,14.54429625,4.8156738,-37.9909515
4.71E+12,-1.209137,1.6149902,11.588974,-0.13928223,-0.10798645,-0.08534241,19.392395,6.4208984,-50.654602,,-1.283655173,1.666785955,11.12378527,-0.174605848,-0.043689013,-0.10910678,16.96834563,5.6182861,-44.32277675
4.71E+12,-1.0046692,1.655365,11.582321,-0.055404663,-0.14978027,-0.053253174,19.392395,6.4208984,-50.654602,,-1.144162187,1.661075477,11.35305313,-0.115005256,-0.096734641,-0.081179977,18.18037031,6.01959225,-47.48868938
4.71E+12,-0.8788452,1.7333832,11.311905,0.043121338,-0.16062927,-0.022201538,19.522095,6.678772,-51.913452,,-1.011503693,1.697229339,11.33247907,-0.035941959,-0.128681956,-0.051690757,18.85123266,6.349182125,-49.70107069
4.71E+12,-0.8295288,1.8530426,10.973923,0.13877869,-0.13711548,0.002655029,19.522095,6.678772,-51.913452,,-0.920516247,1.775135969,11.15320103,0.051418366,-0.132898718,-0.024517864,19.18666383,6.513977063,-50.80726134
4.71E+12,-0.7411194,2.0161743,10.58963,0.21006775,-0.09069824,0.01927185,19.522095,6.678772,-51.913452,,-0.830817823,1.895655135,10.87141552,0.130743058,-0.111798479,-0.002623007,19.35437941,6.596374531,-51.36035667
4.71E+12,-0.6082916,2.1537933,10.2164,0.25735474,-0.027175903,0.03413391,19.522095,6.678772,-51.913452,,-0.719554712,2.024724217,10.54390776,0.194048899,-0.069487191,0.015755451,19.43823721,6.637573266,-51.63690434
4.71E+12,-0.56085205,2.2372437,9.819687,0.27685547,0.049331665,0.047088623,19.638062,6.0943604,-49.97711,,-0.640203381,2.130983959,10.18179738,0.235452184,-0.010077763,0.031422037,19.5381496,6.365966833,-50.80700717
4.71E+12,-0.6239166,2.330246,9.493698,0.27261353,0.12696838,0.055007935,19.638062,6.0943604,-49.97711,,-0.63205999,2.230614979,9.83774769,0.254032857,0.058445309,0.043214986,19.5881058,6.230163616,-50.39205858
4.71E+12,-0.7113037,2.3342743,9.265778,0.25524902,0.19537354,0.057388306,19.638062,6.0943604,-49.97711,,-0.671681845,2.28244464,9.551762845,0.254640939,0.126909424,0.050301646,19.6130839,6.162262008,-50.18458429
4.71E+12,-0.6900177,2.3409576,8.992447,0.233078,0.24017334,0.05419922,19.638062,6.0943604,-49.97711,,-0.680849773,2.31170112,9.272104922,0.243859469,0.183541382,0.052250433,19.62557295,6.128311204,-50.08084715
4.71E+12,-0.6861725,2.3958282,8.748306,0.21884155,0.25430298,0.051712036,20.518494,5.937195,-50.561523,,-0.683511136,2.35376466,9.010205461,0.23135051,0.218922181,0.051981235,20.07203348,6.032753102,-50.32118507
4.71E+12,-0.6981201,2.4538116,8.4713745,0.210495,0.23852539,0.050323486,20.518494,5.937195,-50.561523,,-0.690815618,2.40378813,8.740789981,0.220922755,0.228723786,0.05115236,20.29526374,5.984974051,-50.44135404
4.71E+12,-0.77160645,2.4292297,8.153641,0.21313477,0.19407654,0.048294067,20.518494,5.937195,-50.561523,,-0.731211034,2.416508915,8.44721549,0.217028762,0.211400163,0.049723214,20.40687887,5.961084526,-50.50143852
4.71E+12,-0.8197174,2.4904633,7.794632,0.21939087,0.127182,0.045166016,20.518494,5.937195,-50.561523,,-0.775464217,2.453486107,8.120923745,0.218209816,0.169291081,0.047444615,20.46268643,5.949139763,-50.53148076
4.71E+12,-0.88557434,2.5144196,7.5152893,0.22692871,0.04449463,0.0438385,20.895386,5.9921265,-51.24359,,-0.830519279,2.483952854,7.818106523,0.222569263,0.106892856,0.045641557,20.67903622,5.970633131,-50.88753538
4.71E+12,-0.9069519,2.5999756,7.3792114,0.22857666,-0.04727173,0.047714233,20.895386,5.9921265,-51.24359,,-0.868735589,2.541964227,7.598658961,0.225572962,0.029810563,0.046677895,20.78721111,5.981379816,-51.06556269
4.71E+12,-0.94389343,2.6549377,7.2689056,0.22013855,-0.13380432,0.054626465,20.895386,5.9921265,-51.24359,,-0.90631451,2.598450963,7.433782281,0.222855756,-0.051996879,0.05065218,20.84129855,5.986753158,-51.15457634
4.71E+12,-0.8948517,2.7442322,7.328171,0.19616699,-0.21907043,0.06588745,20.895386,5.9921265,-51.24359,,-0.900583105,2.671341582,7.38097664,0.209511373,-0.135533654,0.058269815,20.86834228,5.989439829,-51.19908317
4.71E+12,-0.8430481,2.7594757,7.6235046,0.15708923,-0.28308105,0.08111572,19.360352,6.7581177,-50.24414,,-0.871815602,2.715408641,7.50224062,0.183300301,-0.209307352,0.069692768,20.11434714,6.373778764,-50.72161159
4.71E+12,-0.7442932,2.8121033,7.8940125,0.10812378,-0.32965088,0.094192505,19.360352,6.7581177,-50.24414,,-0.808054401,2.76375597,7.69812656,0.145712041,-0.269479116,0.081942636,19.73734957,6.565948232,-50.48287579
4.71E+12,-0.67674255,2.8379364,8.168396,0.0592041,-0.3640747,0.1081543,19.360352,6.7581177,-50.24414,,-0.742398476,2.800846185,7.93326128,0.10245807,-0.316776908,0.095048468,19.54885078,6.662032966,-50.3635079
4.71E+12,-0.65200806,2.8126068,8.598846,0.018585205,-0.38417053,0.11567688,18.190002,5.0872803,-50.531006,,-0.697203268,2.806726493,8.26605364,0.060521638,-0.350473719,0.105362674,18.86942639,5.874656633,-50.44725695
4.71E+12,-0.63442993,2.7051697,8.907166,-0.010742188,-0.39523315,0.12173462,18.190002,5.0872803,-50.531006,,-0.665816599,2.755948096,8.58660982,0.024889725,-0.372853435,0.113548647,18.5297142,5.480968467,-50.48913147
4.71E+12,-0.52601624,2.6207123,9.101822,-0.03236389,-0.39227295,0.1257019,18.190002,5.0872803,-50.531006,,-0.595916419,2.688330198,8.84421591,-0.003737082,-0.382563192,0.119625274,18.3598581,5.284124383,-50.51006874
4.71E+12,-0.37876892,2.6653748,9.140457,-0.04598999,-0.3713684,0.1335907,18.190002,5.0872803,-50.531006,,-0.48734267,2.676852499,8.992336455,-0.024863536,-0.376965796,0.126607987,18.27493005,5.185702342,-50.52053737
4.71E+12,-0.26315308,2.739441,9.14798,-0.05583191,-0.33035278,0.14312744,17.977905,4.446411,-50.74005,,-0.375247875,2.70814675,9.070158228,-0.040347723,-0.353659288,0.134867713,18.12641752,4.816056671,-50.63029368
4.71E+12,-0.066711426,2.8613281,9.090851,-0.066604614,-0.27201843,0.15022278,17.977905,4.446411,-50.74005,,-0.22097965,2.784737425,9.080504614,-0.053476169,-0.312838859,0.142545247,18.05216126,4.631233835,-50.68517184
4.71E+12,0.05886841,2.9611511,9.061707,-0.08239746,-0.20796204,0.15299988,17.977905,4.446411,-50.74005,,-0.08105562,2.872944262,9.071105807,-0.067936814,-0.26040045,0.147772563,18.01503313,4.538822418,-50.71261092
4.71E+12,0.2548828,3.0224304,9.052124,-0.10151672,-0.14916992,0.14805603,17.977905,4.446411,-50.74005,,0.08691359,2.947687331,9.061614903,-0.084726767,-0.204785185,0.147914297,17.99646907,4.492616709,-50.72633046
4.71E+12,0.40423584,3.0382233,9.056976,-0.12388611,-0.09512329,0.13586426,19.08722,5.555725,-51.01013,,0.245574715,2.992955316,9.059295452,-0.104306439,-0.149954237,0.141889278,18.54184453,5.024170854,-50.86823023
4.71E+12,0.55659485,3.0677185,9.064514,-0.13505554,-0.06352234,0.117614746,19.08722,5.555725,-51.01013,,0.401084782,3.030336908,9.061904726,-0.119680989,-0.106738289,0.129752012,18.81453227,5.289947927,-50.93918012
4.71E+12,0.73117065,3.1360474,9.061813,-0.13395691,-0.0541687,0.09472656,19.08722,5.555725,-51.01013,,0.566127716,3.083192154,9.061858863,-0.12681895,-0.080453494,0.112239286,18.95087613,5.422836464,-50.97465506
4.71E+12,0.80326843,3.120163,9.026474,-0.12121582,-0.06460571,0.06437683,19.08722,5.555725,-51.01013,,0.684698073,3.101677577,9.044166431,-0.124017385,-0.072529602,0.088308058,19.01904807,5.489280732,-50.99239253
4.71E+12,0.820755,3.0730286,8.886795,-0.101745605,-0.08598328,0.029678345,19.070435,4.1412354,-50.801086,,0.752726537,3.087353088,8.965480716,-0.112881495,-0.079256441,0.058993202,19.04474153,4.815258066,-50.89673926
4.71E+12,0.79797363,3.052353,8.723465,-0.08073425,-0.11427307,-0.006256104,19.070435,4.1412354,-50.801086,,0.775350083,3.069853044,8.844472858,-0.096807872,-0.096764756,0.026368549,19.05758827,4.478246733,-50.84891263
4.71E+12,0.716629,2.9994354,8.611862,-0.05973816,-0.14755249,-0.045715332,19.070435,4.1412354,-50.801086,,0.745989542,3.034644222,8.728167429,-0.078273016,-0.122158623,-0.009673391,19.06401163,4.309741066,-50.82499932
4.71E+12,0.61650085,2.9361572,8.479919,-0.05104065,-0.17152405,-0.08305359,19.070435,4.1412354,-50.801086,,0.681245196,2.985400711,8.604043214,-0.064656833,-0.146841336,-0.046363491,19.06722332,4.225488233,-50.81304266
4.71E+12,0.49969482,2.8843231,8.456467,-0.05342102,-0.18746948,-0.11778259,19.007874,3.7597656,-50.74005,,0.590470008,2.934861906,8.530255107,-0.059038927,-0.167155408,-0.08207304,19.03754866,3.992626917,-50.77654633
4.71E+12,0.46733093,2.8624725,8.575516,-0.06843567,-0.19488525,-0.14820862,19.007874,3.7597656,-50.74005,,0.528900469,2.898667203,8.552885554,-0.063737298,-0.181020329,-0.11514083,19.02271133,3.876196258,-50.75829816
4.71E+12,0.47044373,2.8260803,8.722534,-0.09213257,-0.19056702,-0.17198181,19.007874,3.7597656,-50.74005,,0.499672099,2.862373751,8.637709777,-0.077934934,-0.185793675,-0.14356132,19.01529266,3.817980929,-50.74917408
4.71E+12,0.4972992,2.7116394,8.822815,-0.12080383,-0.17045593,-0.18972778,19.007874,3.7597656,-50.74005,,0.49848565,2.787006576,8.730262388,-0.099369382,-0.178124802,-0.16664455,19.01158333,3.788873265,-50.74461204
4.71E+12,0.5164032,2.6366577,8.848236,-0.1503601,-0.13168335,-0.20240784,18.556213,5.407715,-50.886536,,0.507444425,2.711832138,8.789249194,-0.124864741,-0.154904076,-0.184526195,18.78389817,4.598294132,-50.81557402
4.71E+12,0.47373962,2.5932465,8.86557,-0.17874146,-0.08087158,-0.2111206,18.556213,5.407715,-50.886536,,0.490592022,2.652539319,8.827409597,-0.151803101,-0.117887828,-0.197823398,18.67005558,5.003004566,-50.85105501
4.71E+12,0.40116882,2.5640717,8.848679,-0.20489502,-0.018814087,-0.21705627,18.556213,5.407715,-50.886536,,0.445880421,2.608305509,8.838044299,-0.17834906,-0.068350958,-0.207439834,18.61313429,5.205359783,-50.86879551
4.71E+12,0.28829956,2.5197906,8.84581,-0.23008728,0.04963684,-0.21961975,18.556213,5.407715,-50.886536,,0.367089991,2.564048055,8.841927149,-0.20421817,-0.009357059,-0.213529792,18.58467365,5.306537392,-50.87766575
4.71E+12,0.18623352,2.4901886,8.87471,-0.25401306,0.117004395,-0.21777344,17.134094,6.100464,-51.64337,,0.276661755,2.527118327,8.858318575,-0.229115615,0.053823668,-0.215651616,17.85938382,5.703500696,-51.26051788
4.71E+12,0.14480591,2.4735107,8.93837,-0.27700806,0.186203,-0.2066803,17.134094,6.100464,-51.64337,,0.210733833,2.500314514,8.898344287,-0.253061838,0.120013334,-0.211165958,17.49673891,5.901982348,-51.45194394
4.71E+12,0.118927,2.3979187,9.013687,-0.2955017,0.24861145,-0.18713379,17.134094,6.100464,-51.64337,,0.164830416,2.449116607,8.956015644,-0.274281769,0.184312392,-0.199149874,17.31541646,6.001223174,-51.54765697
4.71E+12,0.09379578,2.3681183,9.057907,-0.3032074,0.29603577,-0.16293335,17.134094,6.100464,-51.64337,,0.129313098,2.408617453,9.006961322,-0.288744584,0.240174081,-0.181041612,17.22475523,6.050843587,-51.59551348
4.71E+12,0.12852478,2.4542084,9.138794,-0.30007935,0.32929993,-0.13748169,16.946411,6.163025,-51.745605,,0.128918939,2.431412927,9.072877661,-0.294411967,0.284737006,-0.159261651,17.08558311,6.106934293,-51.67055924
4.71E+12,0.32237244,2.6209106,9.14856,-0.28320313,0.34518433,-0.11088562,16.946411,6.163025,-51.745605,,0.22564569,2.526161763,9.11071883,-0.288807549,0.314960668,-0.135073635,17.01599706,6.134979647,-51.70808212
4.71E+12,0.5812988,2.8124084,9.11525,-0.25398254,0.33969116,-0.08494568,16.946411,6.163025,-51.745605,,0.403472245,2.669285082,9.112984415,-0.271395044,0.327325914,-0.110009658,16.98120403,6.149002323,-51.72684356
4.71E+12,0.81851196,2.976181,8.939606,-0.21200562,0.31103516,-0.06297302,16.946411,6.163025,-51.745605,,0.610992102,2.822733041,9.026295208,-0.241700332,0.319180537,-0.086491339,16.96380751,6.156013662,-51.73622428
4.71E+12,0.9199524,3.1425781,8.694595,-0.16427612,0.25854492,-0.054519653,18.395996,6.968689,-50.331116,,0.765472251,2.98265557,8.860445104,-0.202988226,0.288862728,-0.070505496,17.67990176,6.562351331,-51.03367014
4.71E+12,0.8877716,3.1987915,8.577209,-0.1186676,0.19148254,-0.060928345,18.395996,6.968689,-50.331116,,0.826621926,3.090723535,8.718827052,-0.160827913,0.240172634,-0.06571692,18.03794888,6.765520165,-50.68239307
4.71E+12,0.7687988,3.3012085,8.399231,-0.07911682,0.11326599,-0.07923889,18.395996,6.968689,-50.331116,,0.797710363,3.195966018,8.559029026,-0.119972367,0.176719312,-0.072477905,18.21697244,6.867104583,-50.50675454
4.71E+12,0.66244507,3.3318481,8.288223,-0.050476074,0.03060913,-0.1000061,18.395996,6.968689,-50.331116,,0.730077716,3.263907059,8.423626013,-0.08522422,0.103664221,-0.086242003,18.30648422,6.917896791,-50.41893527
4.71E+12,0.5652313,3.3082428,8.235687,-0.037612915,-0.04673767,-0.11769104,18.492126,6.6986084,-51.49536,,0.647654508,3.286074929,8.329656506,-0.061418568,0.028463276,-0.101966521,18.39930511,6.808252596,-50.95714763
4.71E+12,0.3885193,3.2973022,8.329086,-0.037002563,-0.13150024,-0.13362122,18.492126,6.6986084,-51.49536,,0.518086904,3.291688565,8.329371253,-0.049210565,-0.051518482,-0.117793871,18.44571555,6.753430498,-51.22625382
4.71E+12,0.12496948,3.197174,8.396179,-0.053344727,-0.20445251,-0.14701843,18.492126,6.6986084,-51.49536,,0.321528192,3.244431282,8.362775127,-0.051277646,-0.127985496,-0.13240615,18.46892078,6.726019449,-51.36080691
4.71E+12,-0.12687683,3.0503235,8.694855,-0.0796814,-0.2687683,-0.1543274,18.492126,6.6986084,-51.49536,,0.097325681,3.147377391,8.528815063,-0.065479523,-0.198376898,-0.143366775,18.48052339,6.712313924,-51.42808345
4.71E+12,-0.3033905,2.976059,8.92868,-0.11579895,-0.31707764,-0.15196228,18.492126,6.678772,-51.57776,,-0.103032409,3.061718196,8.728747532,-0.090639237,-0.257727269,-0.147664528,18.48632469,6.695542962,-51.50292173
4.71E+12,-0.31596375,2.949112,9.059967,-0.15808105,-0.34280396,-0.1375122,18.492126,6.678772,-51.57776,,-0.20949808,3.005415098,8.894357266,-0.124360143,-0.300265615,-0.142588364,18.48922535,6.687157481,-51.54034086
4.71E+12,-0.18725586,2.9794312,9.284363,-0.19869995,-0.3478241,-0.11364746,18.492126,6.678772,-51.57776,,-0.19837697,2.992423149,9.089360133,-0.161530047,-0.324044857,-0.128117912,18.49067567,6.682964741,-51.55905043
4.71E+12,0.028762817,3.053299,9.527451,-0.24923706,-0.33137512,-0.08163452,18.492126,6.678772,-51.57776,,-0.084807076,3.022861074,9.308405566,-0.205383553,-0.327709989,-0.104876216,18.49140084,6.68086837,-51.56840522
4.71E+12,0.22982788,3.2201233,9.705368,-0.2985382,-0.29748535,-0.05317688,18.492126,6.678772,-51.57776,,0.072510402,3.121492187,9.506886783,-0.251960877,-0.312597669,-0.079026548,18.49176342,6.679820185,-51.57308261
4.71E+12,0.45700073,3.4045258,9.814377,-0.34754944,-0.25120544,-0.030548096,18.492126,6.678772,-51.57776,,0.264755566,3.263008994,9.660631892,-0.299755158,-0.281901555,-0.054787322,18.49194471,6.679296093,-51.5754213
4.71E+12,0.668808,3.4696045,9.92215,-0.3895111,-0.19673157,-0.018218994,18.492126,6.678772,-51.57776,,0.466781783,3.366306747,9.791390946,-0.344633129,-0.239316562,-0.036503158,18.49203535,6.679034046,-51.57659065
4.71E+12,0.8415375,3.5808868,10.033936,-0.42268372,-0.14178467,-0.019241333,19.856262,7.3623657,-51.24359,,0.654159641,3.473596773,9.912663473,-0.383658425,-0.190550616,-0.027872245,19.17414868,7.020699873,-51.41009033
4.71E+12,0.7928467,3.623169,10.090347,-0.4468689,-0.09738159,-0.032791138,19.856262,7.3623657,-51.24359,,0.723503171,3.548382887,10.00150524,-0.415263662,-0.143966103,-0.030331692,19.51520534,7.191532787,-51.32684016
4.71E+12,0.7591553,3.615448,10.074783,-0.4644165,-0.06121826,-0.061294556,19.856262,7.3623657,-51.24359,,0.741329235,3.581915443,10.03814412,-0.439840081,-0.102592182,-0.045813124,19.68573367,7.276949243,-51.28521508
4.71E+12,0.6404877,3.527771,10.149704,-0.47052002,-0.039108276,-0.09068298,19.856262,7.3623657,-51.24359,,0.690908468,3.554843222,10.09392406,-0.455180051,-0.070850229,-0.068248052,19.77099783,7.319657472,-51.26440254
4.71E+12,0.52612305,3.4278107,10.180145,-0.4654541,-0.031539917,-0.11985779,17.289734,6.5063477,-51.411438,,0.608515759,3.491326961,10.13703453,-0.460317075,-0.051195073,-0.094052921,18.53036592,6.913002586,-51.33792027
4.71E+12,0.34588623,3.320877,10.187576,-0.44909668,-0.04273987,-0.14608765,17.289734,6.5063477,-51.411438,,0.477200994,3.40610198,10.16230526,-0.454706878,-0.046967471,-0.120070285,17.91004996,6.709675143,-51.37467914
4.71E+12,0.13703918,3.2056274,10.144165,-0.42303467,-0.061035156,-0.16577148,17.289734,6.5063477,-51.411438,,0.307120087,3.30586469,10.15323513,-0.438870774,-0.054001314,-0.142920883,17.59989198,6.608011421,-51.39305857
4.71E+12,-0.014556885,3.1459808,10.013229,-0.39727783,-0.08227539,-0.17504883,17.289734,6.5063477,-51.411438,,0.146281601,3.225922745,10.08323207,-0.418074302,-0.068138352,-0.158984856,17.44481299,6.557179561,-51.40224828
4.71E+12,-0.11961365,3.1284943,10.017761,-0.3703308,-0.10227966,-0.17097473,17.304993,6.5063477,-51.379395,,0.013333976,3.177208523,10.05049653,-0.394202551,-0.085209006,-0.164979793,17.37490299,6.53176363,-51.39082164
4.71E+12,-0.16397095,3.1666412,10.032684,-0.34680176,-0.11810303,-0.15698242,17.304993,6.5063477,-51.379395,,-0.075318487,3.171924861,10.04159027,-0.370502155,-0.101656018,-0.160981107,17.339948,6.519055665,-51.38510832
4.71E+12,-0.072006226,3.1960602,10.02594,-0.32112122,-0.13070679,-0.13908386,17.304993,6.5063477,-51.379395,,-0.073662357,3.183992531,10.03376513,-0.345811688,-0.116181404,-0.150032483,17.3224705,6.512701683,-51.38225166
4.71E+12,0.03302002,3.2402344,9.965363,-0.29244995,-0.138443,-0.11723328,17.304993,6.5063477,-51.379395,,-0.020321168,3.212113465,9.999564067,-0.319130819,-0.127312202,-0.133632882,17.31373175,6.509524691,-51.38082333
4.71E+12,0.0973053,3.2376862,9.895142,-0.26055908,-0.14242554,-0.09625244,17.713928,6.6314697,-50.750732,,0.038492066,3.224899833,9.947353033,-0.289844949,-0.134868871,-0.114942661,17.51382987,6.570497196,-51.06577767
4.71E+12,0.18348694,3.2068787,9.819687,-0.22592163,-0.14186096,-0.07673645,17.713928,6.6314697,-50.750732,,0.110989503,3.215889266,9.883520017,-0.25788329,-0.138364915,-0.095839555,17.61387894,6.600983448,-50.90825483
4.71E+12,0.272583,3.198532,9.637421,-0.18536377,-0.13565063,-0.057266235,17.713928,6.6314697,-50.750732,,0.191786251,3.207210633,9.760470508,-0.22162353,-0.137007773,-0.076552895,17.66390347,6.616226574,-50.82949342
4.71E+12,0.37516785,3.2574768,9.406204,-0.14428711,-0.123062134,-0.039978027,17.713928,6.6314697,-50.750732,,0.283477051,3.232343717,9.583337254,-0.18295532,-0.130034953,-0.058265461,17.68891573,6.623848137,-50.79011271
4.71E+12,0.48336792,3.2697601,9.094681,-0.104385376,-0.10316467,-0.026062012,18.83545,8.395386,-50.907898,,0.383422485,3.251051908,9.339009127,-0.143670348,-0.116599812,-0.042163737,18.26218287,7.509617068,-50.84900535
4.71E+12,0.53201294,3.322586,8.825867,-0.068878174,-0.08180237,-0.014526367,18.83545,8.395386,-50.907898,,0.457717713,3.286818954,9.082438064,-0.106274261,-0.099201091,-0.028345052,18.54881643,7.952501534,-50.87845168
4.71E+12,0.5418701,3.3621063,8.620697,-0.04069519,-0.060806274,-0.005355835,18.83545,8.395386,-50.907898,,0.499793906,3.324462627,8.851567532,-0.073484725,-0.080003682,-0.016850443,18.69213322,8.173943767,-50.89317484
4.71E+12,0.5208893,3.381134,8.508133,-0.016494751,-0.039993286,0.001739502,18.83545,8.395386,-50.907898,,0.510341603,3.352798314,8.679850266,-0.044989738,-0.059998484,-0.007555471,18.76379161,8.284664884,-50.90053642
4.71E+12,0.48799133,3.3880463,8.464432,0.005065918,-0.02178955,0.007461548,18.739319,8.604431,-50.96283,,0.499166467,3.370422307,8.572141133,-0.01996191,-0.040894017,-4.70E-05,18.7515553,8.444547942,-50.93168321
4.71E+12,0.4699707,3.4145508,8.374649,0.029190063,-0.01222229,0.010696411,18.739319,8.604431,-50.96283,,0.484568583,3.392486553,8.473395066,0.004614076,-0.026558154,0.005324725,18.74543715,8.524489471,-50.9472566
4.71E+12,0.55010986,3.5202637,8.212219,0.061798096,-0.015441895,0.012878418,18.739319,8.604431,-50.96283,,0.517339222,3.456375127,8.342807033,0.033206086,-0.021000024,0.009101571,18.74237808,8.564460235,-50.9550433
4.71E+12,0.69963074,3.658722,8.115845,0.104400635,-0.03337097,0.01689148,18.739319,8.604431,-50.96283,,0.608484981,3.557548563,8.229326017,0.068803361,-0.027185497,0.012996526,18.74084854,8.584445618,-50.95893665
4.71E+12,0.848053,3.756485,8.097458,0.15242004,-0.064575195,0.016799927,17.887878,9.924316,-51.322937,,0.72826899,3.657016782,8.163392008,0.1106117,-0.045880346,0.014898226,18.31436327,9.254380809,-51.14093683
4.71E+12,1.0136719,3.8368835,7.9806366,0.2078247,-0.1025238,0.008010864,17.887878,9.924316,-51.322937,,0.870970445,3.746950141,8.072014304,0.1592182,-0.074202073,0.011454545,18.10112063,9.589348404,-51.23193691
4.71E+12,1.2587891,3.9231262,7.7191772,0.26768494,-0.13256836,-0.007781982,17.887878,9.924316,-51.322937,,1.064879773,3.83503817,7.895595752,0.21345157,-0.103385217,0.001836281,17.99449932,9.756832202,-51.27743696
4.71E+12,1.4982758,3.993744,7.430588,0.32466125,-0.15238953,-0.028839111,17.887878,9.924316,-51.322937,,1.281577786,3.914391085,7.663091876,0.26905641,-0.127887373,-0.013501415,17.94118866,9.840574101,-51.30018698
4.71E+12,1.6164398,4.080551,7.055893,0.37239075,-0.16842651,-0.059936523,17.289734,7.536316,-50.74005,,1.449008793,3.997471043,7.359492438,0.32072358,-0.148156942,-0.036718969,17.61546133,8.688445051,-51.02011849
4.71E+12,1.6086273,4.12442,6.7445984,0.41220093,-0.18292236,-0.10391235,17.289734,7.536316,-50.74005,,1.528818047,4.060945521,7.052045419,0.366462255,-0.165539651,-0.070315659,17.45259766,8.112380525,-50.88008424
4.71E+12,1.4972534,4.1529236,6.3927,0.43980408,-0.19277954,-0.15542603,17.289734,7.536316,-50.74005,,1.513035723,4.106934561,6.72237271,0.403133168,-0.179159595,-0.112870845,17.37116583,7.824348263,-50.81006712
4.71E+12,1.4192047,4.1217346,6.120056,0.44995117,-0.1947174,-0.2106781,17.289734,7.536316,-50.74005,,1.466120212,4.11433458,6.421214355,0.426542169,-0.186938498,-0.161774472,17.33044992,7.680332131,-50.77505856
4.71E+12,1.4315948,4.101074,6.1466827,0.43836975,-0.19277954,-0.25836182,17.411804,7.902527,-50.85907,,1.448857506,4.10770429,6.283948527,0.432455959,-0.189859019,-0.210068146,17.37112696,7.791429566,-50.81706428
4.71E+12,1.4242401,4.038162,6.147049,0.4041748,-0.19145203,-0.2979126,17.411804,7.902527,-50.85907,,1.436548803,4.072933145,6.215498764,0.41831538,-0.190655524,-0.253990373,17.39146548,7.846978283,-50.83806714
4.71E+12,1.333313,3.8829803,6.256653,0.35430908,-0.18334961,-0.33268738,17.411804,7.902527,-50.85907,,1.384930901,3.977956723,6.236075882,0.38631223,-0.187002567,-0.293338877,17.40163474,7.874752641,-50.84856857
4.71E+12,1.2476501,3.7831879,6.265045,0.29486084,-0.15740967,-0.36106873,17.411804,7.902527,-50.85907,,1.316290501,3.880572311,6.250560441,0.340586535,-0.172206119,-0.327203803,17.40671937,7.888639821,-50.85381929
4.71E+12,1.2619934,3.6760101,6.22435,0.23291016,-0.11845398,-0.3782196,17.875671,9.42688,-51.44348,,1.28914195,3.778291206,6.23745522,0.286748347,-0.145330049,-0.352711702,17.64119518,8.65775991,-51.14864964
4.71E+12,1.159256,3.6437378,6.2103424,0.15853882,-0.0652771,-0.38789368,17.875671,9.42688,-51.44348,,1.224198975,3.711014503,6.22389881,0.222643584,-0.105303575,-0.370302691,17.75843309,9.042319955,-51.29606482
4.71E+12,0.9007721,3.6240082,6.42749,0.08125305,-0.014511108,-0.38885498,17.875671,9.42688,-51.44348,,1.062485538,3.667511351,6.325694405,0.151948317,-0.059907341,-0.379578835,17.81705205,9.234599978,-51.36977241
4.71E+12,0.5868225,3.5750732,6.8047333,-0.002349854,0.03186035,-0.38587952,17.875671,9.42688,-51.44348,,0.824654019,3.621292276,6.565213853,0.074799232,-0.014023496,-0.382729178,17.84636152,9.330739989,-51.40662621
4.71E+12,0.354599,3.5772095,7.208786,-0.086639404,0.06768799,-0.37854004,17.462158,8.7387085,-51.57776,,0.589626509,3.599250888,6.886999926,-0.005920086,0.026832247,-0.380634609,17.65425976,9.034724244,-51.4921931
4.71E+12,0.19578552,3.5421295,7.5160675,-0.16007996,0.097335815,-0.3667755,17.462158,8.7387085,-51.57776,,0.392706015,3.570690194,7.201533713,-0.083000023,0.062084031,-0.373705054,17.55820888,8.886716372,-51.53497655
4.71E+12,0.06513977,3.5131683,8.022461,-0.21365356,0.12095642,-0.3456726,17.462158,8.7387085,-51.57776,,0.228922892,3.541929247,7.611997357,-0.148326792,0.091520226,-0.359688827,17.51018344,8.812712436,-51.55636828
4.71E+12,0.13195801,3.5213776,8.546661,-0.25650024,0.13552856,-0.31367493,17.503357,8.612061,-51.53656,,0.180440451,3.531653423,8.079329178,-0.202413516,0.113524393,-0.336681879,17.50677022,8.712386718,-51.54646414
4.71E+12,0.41841125,3.5552979,9.04834,-0.27400208,0.12857056,-0.27973938,17.503357,8.612061,-51.53656,,0.299425851,3.543475662,8.563834589,-0.238207798,0.121047476,-0.308210629,17.50506361,8.662223859,-51.54151207
4.71E+12,0.704895,3.6335602,9.279327,-0.26060486,0.11109924,-0.24659729,17.503357,8.612061,-51.53656,,0.502160425,3.588517931,8.921580795,-0.249406329,0.116073358,-0.27740396,17.50421031,8.63714243,-51.53903603
4.71E+12,0.9036865,3.7467499,9.309326,-0.22076416,0.09275818,-0.22465515,17.503357,8.612061,-51.53656,,0.702923463,3.667633915,9.115453397,-0.235085244,0.104415769,-0.251029555,17.50378365,8.624601715,-51.53779802
4.71E+12,0.9711609,3.8964233,9.138184,-0.16279602,0.07762146,-0.21600342,17.544556,8.132935,-51.150513,,0.837042181,3.782028608,9.126818699,-0.198940632,0.091018615,-0.233516487,17.52416983,8.378768357,-51.34415551
4.71E+12,1.1462402,4.002899,8.845917,-0.101882935,0.06315613,-0.21833801,17.544556,8.132935,-51.150513,,0.991641191,3.892463804,8.986367849,-0.150411784,0.077087372,-0.225927249,17.53436291,8.255851679,-51.24733425
4.71E+12,1.3724365,4.039154,8.735764,-0.04006958,0.04171753,-0.22817993,17.544556,8.132935,-51.150513,,1.182038845,3.965808902,8.861065925,-0.095240682,0.059402451,-0.227053589,17.53945946,8.194393339,-51.19892363
4.71E+12,1.4666595,3.9923553,8.770645,0.003097534,0.018295288,-0.2434082,17.544556,8.132935,-51.150513,,1.324349173,3.979082101,8.815855462,-0.046071574,0.03884887,-0.235230895,17.54200773,8.16366417,-51.17471831
4.71E+12,1.5136261,3.9378967,8.815704,0.032089233,0.001968384,-0.2692566,17.289734,7.8796387,-50.405884,,1.418987636,3.9584894,8.815779731,-0.00699117,0.020408627,-0.252243747,17.41587086,8.021651435,-50.79030116
4.71E+12,1.3787537,3.84935,8.917664,0.047805786,-0.002563477,-0.29994202,17.289734,7.8796387,-50.405884,,1.398870668,3.9039197,8.866721866,0.020407308,0.008922575,-0.276092884,17.35280243,7.950645067,-50.59809258
4.71E+12,1.2299957,3.5648804,9.124527,0.055007935,0.003463745,-0.33459473,17.289734,7.8796387,-50.405884,,1.314433184,3.73440005,8.995624433,0.037707621,0.00619316,-0.305343807,17.32126822,7.915141884,-50.50198829
4.71E+12,1.0771484,3.3185577,9.257065,0.05647278,0.022842407,-0.36712646,17.289734,7.8796387,-50.405884,,1.195790792,3.526478875,9.126344716,0.047090201,0.014517784,-0.336235133,17.30550111,7.897390292,-50.45393614
4.71E+12,0.8597412,3.190155,9.278412,0.05531311,0.06309509,-0.39074707,16.972351,8.407593,-50.405884,,1.027765996,3.358316938,9.202378358,0.051201655,0.038806437,-0.363491102,17.13892605,8.152491646,-50.42991007
4.71E+12,0.62101746,3.1886444,9.248413,0.05455017,0.106933594,-0.39814758,16.972351,8.407593,-50.405884,,0.824391728,3.273480669,9.225395679,0.052875913,0.072870015,-0.380819341,17.05563853,8.280042323,-50.41789704
4.71E+12,0.349411,3.2350006,9.195557,0.052856445,0.15093994,-0.39401245,16.972351,8.407593,-50.405884,,0.586901364,3.254240634,9.21047634,0.052866179,0.111904978,-0.387415895,17.01399476,8.343817661,-50.41189052
4.71E+12,0.001800537,3.2235107,9.172058,0.04701233,0.1907196,-0.38233948,16.972351,8.407593,-50.405884,,0.294350951,3.238875667,9.19126717,0.049939254,0.151312289,-0.384877688,16.99317288,8.375705331,-50.40888726
4.71E+12,-0.60069275,3.1297913,9.025894,0.040985107,0.22084045,-0.36810303,16.148376,9.484863,-51.164246,,-0.1531709,3.184333484,9.108580585,0.045462181,0.186076369,-0.376490359,16.57077444,8.930284165,-50.78656663
4.71E+12,-0.8307648,3.148529,9.0807495,0.03387451,0.24246216,-0.34677124,16.148376,9.484863,-51.164246,,-0.49196785,3.166431242,9.094665042,0.039668345,0.214269265,-0.361630799,16.35957522,9.207573583,-50.97540631
4.71E+12,-0.5561676,3.2842255,9.496689,0.019378662,0.25222778,-0.30775452,16.148376,9.484863,-51.164246,,-0.524067725,3.225328371,9.295677021,0.029523504,0.233248522,-0.33469266,16.25397561,9.346218291,-51.06982616
4.71E+12,-0.20236206,3.494522,9.93251,-9.92E-04,0.240448,-0.25793457,16.148376,9.484863,-51.164246,,-0.363214892,3.359925185,9.614093511,0.014265841,0.236848261,-0.296313615,16.20117581,9.415540646,-51.11703608
4.71E+12,-0.011886597,3.6431274,10.134689,-0.020553589,0.21388245,-0.21081543,15.916443,9.25293,-52.75116,,-0.187550745,3.501526293,9.874391255,-0.003143874,0.225365356,-0.253564522,16.0588094,9.334235323,-51.93409804
4.71E+12,0.07417297,3.6459808,10.177948,-0.031295776,0.18704224,-0.17852783,15.916443,9.25293,-52.75116,,-0.056688887,3.573753546,10.02616963,-0.017219825,0.206203798,-0.216046176,15.9876262,9.293582661,-52.34262902
4.71E+12,0.13619995,3.5592957,10.264923,-0.035095215,0.15736389,-0.16226196,15.916443,9.25293,-52.75116,,0.039755531,3.566524623,10.14554631,-0.02615752,0.181783844,-0.189154068,15.9520346,9.273256331,-52.54689451
4.71E+12,0.12931824,3.4902496,10.389725,-0.035232544,0.11331177,-0.15808105,15.916443,9.25293,-52.75116,,0.084536886,3.528387112,10.26763566,-0.030695032,0.147547807,-0.173617559,15.9342388,9.263093165,-52.64902725
4.71E+12,0.11526489,3.4739532,10.61763,-0.030090332,0.047470093,-0.16035461,16.171265,9.124756,-52.25067,,0.099900888,3.501170156,10.44263283,-0.030392682,0.09750895,-0.166986085,16.0527519,9.193924583,-52.44984863
4.71E+12,0.1298523,3.407318,10.994476,-0.022460938,-0.03630066,-0.16014099,16.171265,9.124756,-52.25067,,0.114876594,3.454244078,10.71855441,-0.02642681,0.030604145,-0.163563537,16.11200845,9.159340291,-52.35025931
4.71E+12,0.1387024,3.2780457,11.513824,-0.012954712,-0.1328888,-0.15548706,16.171265,9.124756,-52.25067,,0.126789497,3.366144889,11.11618921,-0.019690761,-0.051142328,-0.159525299,16.14163673,9.142048146,-52.30046466
4.71E+12,0.13230896,3.1311035,12.069855,-1.07E-04,-0.22819519,-0.14828491,16.171265,9.124756,-52.25067,,0.129549228,3.248624194,11.5930221,-0.009898786,-0.139668759,-0.153905104,16.15645086,9.133402073,-52.27556733
4.71E+12,0.12779236,2.975006,12.527466,0.016571045,-0.2992096,-0.13973999,16.668701,8.842468,-51.0849,,0.128670794,3.111815097,12.06024405,0.003336129,-0.219439179,-0.146822547,16.41257593,8.987935036,-51.68023366
4.71E+12,0.17788696,2.8632507,12.917282,0.036499023,-0.34057617,-0.12646484,16.668701,8.842468,-51.0849,,0.153278877,2.987532899,12.48876303,0.019917576,-0.280007675,-0.136643694,16.54063847,8.915201518,-51.38256683
4.71E+12,0.26649475,2.8117065,13.233826,0.05239868,-0.3461151,-0.10722351,16.668701,8.842468,-51.0849,,0.209886814,2.899619699,12.86129451,0.036158128,-0.313061387,-0.121933602,16.60466973,8.878834759,-51.23373342
4.71E+12,0.31729126,2.8841553,13.469955,0.063308716,-0.32408142,-0.08572388,16.668701,8.842468,-51.0849,,0.263589037,2.8918875,13.16562476,0.049733422,-0.318571404,-0.103828741,16.63668537,8.86065138,-51.15931671
4.71E+12,0.4728241,3.0854797,13.742523,0.07463074,-0.28556824,-0.06468201,16.775513,8.7387085,-50.572205,,0.368206568,2.9886836,13.45407388,0.062182081,-0.302069822,-0.084255375,16.70609918,8.79967994,-50.86576085
4.71E+12,0.63804626,3.2700043,13.993027,0.08743286,-0.23277283,-0.050964355,16.775513,8.7387085,-50.572205,,0.503126414,3.12934395,13.72355044,0.074807471,-0.267421326,-0.067609865,16.74080609,8.76919422,-50.71898293
4.71E+12,0.505188,3.3533478,14.036316,0.10508728,-0.17150879,-0.04812622,16.775513,8.7387085,-50.572205,,0.504157207,3.241345875,13.87993322,0.089947375,-0.219465058,-0.057868043,16.75815955,8.75395136,-50.64559396
4.71E+12,0.31498718,3.226654,13.804779,0.129776,-0.08528137,-0.057022095,16.775513,8.7387085,-50.572205,,0.409572194,3.233999937,13.84235611,0.109861688,-0.152373214,-0.057445069,16.76683627,8.74632993,-50.60889948
4.71E+12,0.24006653,2.961441,13.371384,0.15188599,0.022628784,-0.06752014,16.85028,8.963013,-50.645447,,0.324819362,3.097720469,13.60687005,0.130873839,-0.064872215,-0.062482604,16.80855814,8.854671465,-50.62717324
4.71E+12,0.02722168,2.671051,12.856995,0.15864563,0.15078735,-0.07122803,16.85028,8.963013,-50.645447,,0.176020521,2.884385734,13.23193253,0.144759734,0.042957568,-0.066855317,16.82941907,8.908842232,-50.63631012
4.71E+12,-0.2850647,2.3148956,12.529907,0.14128113,0.28883362,-0.06982422,16.85028,8.963013,-50.645447,,-0.05452209,2.599640667,12.88091976,0.143020432,0.165895594,-0.068339769,16.83984953,8.935927616,-50.64087856
4.71E+12,-0.7176361,2.117096,12.213409,0.09635925,0.42697144,-0.06764221,16.85028,8.963013,-50.645447,,-0.386079095,2.358368334,12.54716438,0.119689841,0.296433517,-0.067990989,16.84506477,8.949470308,-50.64316278
4.71E+12,-1.1852112,1.9928131,11.98407,0.036239624,0.5533447,-0.061203003,17.100525,9.872437,-50.58899,,-0.785645147,2.175590717,12.26561719,0.077964733,0.424889108,-0.064596996,16.97279488,9.410953654,-50.61607639
4.71E+12,-1.6383972,1.9115448,11.954056,-0.044525146,0.6872101,-0.045455933,17.100525,9.872437,-50.58899,,-1.212021174,2.043567758,12.1098366,0.016719793,0.556049604,-0.055026465,17.03665994,9.641695327,-50.6025332
4.71E+12,-1.9332275,2.0013733,12.141052,-0.12789917,0.7921295,-0.02394104,17.100525,9.872437,-50.58899,,-1.572624337,2.022470529,12.1254443,-0.055589688,0.674089552,-0.039483752,17.06859247,9.757066164,-50.5957616
4.71E+12,-2.1419678,2.1154022,12.431671,-0.20147705,0.865921,0.005950928,17.100525,9.872437,-50.58899,,-1.857296068,2.068936365,12.27855765,-0.128533369,0.770005276,-0.016766412,17.08455874,9.814751582,-50.5923758
4.71E+12,-2.321991,2.2743225,12.57132,-0.2539673,0.9079437,0.034500122,17.289734,10.627747,-50.405884,,-2.089643534,2.171629432,12.42493882,-0.191250335,0.838974488,0.008866855,17.18714637,10.22124929,-50.4991299
4.71E+12,-2.5272522,2.2663116,12.498093,-0.28175354,0.92697144,0.06173706,17.289734,10.627747,-50.405884,,-2.308447867,2.218970516,12.46151591,-0.236501937,0.882972964,0.035301957,17.23844018,10.42449815,-50.45250695
4.71E+12,-2.6927643,2.0661469,12.426865,-0.2879486,0.9220581,0.08605957,17.289734,10.627747,-50.405884,,-2.500606084,2.142558708,12.44419046,-0.262225269,0.902515532,0.060680764,17.26408709,10.52612257,-50.42919547
4.71E+12,-2.7767944,1.9445038,12.489975,-0.27589417,0.882843,0.119903564,17.289734,10.105896,-50.743103,,-2.638700242,2.043531254,12.46708273,-0.269059719,0.892679266,0.090292164,17.27691055,10.31600929,-50.58614924
4.71E+12,-2.8298645,1.8401794,12.56221,-0.2566986,0.8101349,0.15859985,17.289734,10.105896,-50.743103,,-2.734282371,1.941855327,12.51464636,-0.26287916,0.851407083,0.124446007,17.28332227,10.21095264,-50.66462612
4.71E+12,-2.7524872,1.8757629,12.817184,-0.22763062,0.7119751,0.2038269,17.289734,10.105896,-50.743103,,-2.743384785,1.908809114,12.66591518,-0.24525489,0.781691092,0.164136453,17.28652814,10.15842432,-50.70386456
4.71E+12,-2.5441284,1.8931732,13.19902,-0.18798828,0.597641,0.2566681,17.289734,10.105896,-50.743103,,-2.643756593,1.900991157,12.93246759,-0.216621585,0.689666046,0.210402277,17.28813107,10.13216016,-50.72348378
4.71E+12,-2.2698822,1.848587,13.3233185,-0.1353302,0.4811554,0.31181335,18.530273,9.063721,-50.21057,,-2.456819396,1.874789078,13.12789305,-0.175975892,0.585410723,0.261107813,17.90920203,9.59794058,-50.46702689
4.71E+12,-2.0371704,1.8889923,13.12796,-0.07040405,0.37983704,0.3646698,18.530273,9.063721,-50.21057,,-2.246994898,1.881890689,13.12792652,-0.123189971,0.482623881,0.312888807,18.21973752,9.33083079,-50.33879844
4.71E+12,-1.7444,1.9833069,12.756638,0.008865356,0.28204346,0.41870117,18.530273,9.063721,-50.21057,,-1.995697449,1.932598795,12.94228226,-0.057162308,0.382333671,0.365794988,18.37500526,9.197275895,-50.27468422
4.71E+12,-1.3209229,2.0254364,12.45546,0.07946777,0.2056427,0.4644165,18.530273,9.063721,-50.21057,,-1.658310175,1.979017597,12.69887113,0.011152731,0.293988185,0.415105744,18.45263913,9.130498448,-50.24262711
4.71E+12,-0.9002991,2.1871796,12.221756,0.1337738,0.13664246,0.50749207,19.694519,8.566284,-49.40033,,-1.279304637,2.083098599,12.46031357,0.072463266,0.215315323,0.461298907,19.07357906,8.848391224,-49.82147856
4.71E+12,-0.54875183,2.4218292,12.078766,0.16592407,0.07783508,0.5416565,19.694519,8.566284,-49.40033,,-0.914028234,2.252463899,12.26953978,0.119193668,0.146575201,0.501477704,19.38404903,8.707337612,-49.61090428
4.71E+12,-0.22789001,2.6308746,11.875778,0.17662048,0.036392212,0.5616455,19.694519,8.566284,-49.40033,,-0.570959122,2.44166925,12.07265889,0.147907074,0.091483707,0.531561602,19.53928402,8.636810806,-49.50561714
4.71E+12,0.025466919,2.7588654,11.603409,0.16889954,0.014602661,0.5663452,19.694519,8.566284,-49.40033,,-0.272746101,2.600267325,11.83803395,0.158403307,0.053043184,0.548953401,19.61690151,8.601547403,-49.45297357
4.71E+12,0.1929779,2.838852,11.337158,0.13757324,0.011795044,0.5520477,19.79065,9.054565,-49.876404,,-0.039884101,2.719559662,11.58759597,0.147988273,0.032419114,0.55050055,19.70377575,8.828056201,-49.66468878
4.71E+12,0.31414795,2.8429108,11.242004,0.091430664,0.02178955,0.5225067,19.79065,9.054565,-49.876404,,0.137131925,2.781235231,11.41479999,0.119709469,0.027104332,0.536503625,19.74721288,8.941310601,-49.77054639
4.71E+12,0.3197174,2.7690582,11.165344,0.031951904,0.036376953,0.48382568,19.79065,9.054565,-49.876404,,0.228424662,2.775146716,11.29007199,0.075830686,0.031740642,0.510164653,19.76893144,8.9979378,-49.8234752
4.71E+12,0.2102356,2.649994,11.2057495,-0.03250122,0.048706055,0.43959045,19.79065,9.054565,-49.876404,,0.219330131,2.712570358,11.24791075,0.021664733,0.040223349,0.474877551,19.77979072,9.0262514,-49.8499396
4.71E+12,0.06286621,2.4519806,11.3155365,-0.09310913,0.058166504,0.3922882,19.865417,9.225464,-50.62561,,0.141098171,2.582275479,11.28172362,-0.035722198,0.049194926,0.433582876,19.82260386,9.1258577,-50.2377748
4.71E+12,-0.21183777,2.179657,11.537857,-0.14506531,0.06373596,0.3449402,19.865417,9.225464,-50.62561,,-0.0353698,2.380966239,11.40979031,-0.090393754,0.056465443,0.389261538,19.84401043,9.17566085,-50.4316924
4.71E+12,-0.52368164,1.9269409,11.723221,-0.18043518,0.06512451,0.29734802,19.865417,9.225464,-50.62561,,-0.27952572,2.15395357,11.56650566,-0.135414467,0.060794977,0.343304779,19.85471371,9.200562425,-50.5286512
4.71E+12,-0.8301239,1.662384,11.680237,-0.19030762,0.063705444,0.26411438,19.865417,9.225464,-50.62561,,-0.55482481,1.908168785,11.62337133,-0.162861044,0.06225021,0.303709579,19.86006536,9.213013213,-50.5771306
4.71E+12,-1.1725006,1.3956909,11.48465,-0.17489624,0.057907104,0.24694824,19.865417,9.082031,-50.907898,,-0.863662705,1.651929842,11.55401066,-0.168878642,0.060078657,0.27532891,19.86274118,9.147522106,-50.7425143
4.71E+12,-1.4066162,1.2044373,11.30278,-0.13761902,0.047073364,0.24502563,19.865417,9.082031,-50.907898,,-1.135139452,1.428183571,11.42839533,-0.153248831,0.053576011,0.26017727,19.86407909,9.114776553,-50.82520615
4.71E+12,-1.4745178,1.1087341,11.185501,-0.09013367,0.032348633,0.25953674,19.865417,9.082031,-50.907898,,-1.304828626,1.268458836,11.30694817,-0.12169125,0.042962322,0.259857005,19.86474804,9.098403777,-50.86655207
4.71E+12,-1.4617157,1.0319214,11.227005,-0.03767395,0.01109314,0.29058838,19.865417,9.082031,-50.907898,,-1.383272163,1.150190118,11.26697658,-0.0796826,0.027027731,0.275222692,19.86508252,9.090217388,-50.88722504
4.71E+12,-1.4484863,1.0240326,11.1489105,0.023117065,-0.014312744,0.33143616,19.429016,8.427429,-49.420166,,-1.415879232,1.087111359,11.20794354,-0.028282768,0.006357493,0.303329426,19.64704926,8.758823194,-50.15369552
4.71E+12,-1.4050293,1.0986481,10.728836,0.09303284,-0.03451538,0.37153625,19.429016,8.427429,-49.420166,,-1.410454266,1.092879729,10.96838977,0.032375036,-0.014078943,0.337432838,19.53803263,8.593126097,-49.78693076
4.71E+12,-1.1545715,1.2202759,10.137344,0.17224121,-0.049423218,0.41212463,19.429016,8.427429,-49.420166,,-1.282512883,1.156577815,10.55286689,0.102308123,-0.031751081,0.374778734,19.48352432,8.510277549,-49.60354838
4.71E+12,-0.9008179,1.4091034,9.504013,0.25135803,-0.063827515,0.45089722,19.429016,8.427429,-49.420166,,-1.091665391,1.282840607,10.02843994,0.176833077,-0.047789298,0.412837977,19.45627016,8.468853274,-49.51185719
4.71E+12,-0.69918823,1.6729584,8.821152,0.31651306,-0.08744812,0.4806366,20.173645,8.825684,-48.884583,,-0.895426811,1.477899504,9.424795971,0.246673068,-0.067618709,0.446737289,19.81495758,8.647268637,-49.19822009
4.71E+12,-0.34848022,1.8995056,8.128204,0.36746216,-0.11920166,0.4994812,20.173645,8.825684,-48.884583,,-0.621953515,1.688702552,8.776499986,0.307067614,-0.093410184,0.473109244,19.99430129,8.736476319,-49.04140155
4.71E+12,-0.07557678,2.0817413,7.5234222,0.3927002,-0.15156555,0.5055542,20.173645,8.825684,-48.884583,,-0.348765148,1.885221926,8.149961093,0.349883907,-0.122487867,0.489331722,20.08397314,8.781080159,-48.96299227
4.71E+12,0.28172302,2.3370667,7.0892944,0.39059448,-0.1862793,0.4948883,20.173645,8.825684,-48.884583,,-0.033521064,2.111144313,7.619627746,0.370239194,-0.154383584,0.492110011,20.12880907,8.80338208,-48.92378764
4.71E+12,0.639801,2.5385742,6.678299,0.3605652,-0.21990967,0.46687317,20.724487,9.25293,-49.064636,,0.303139968,2.324859256,7.148963373,0.365402197,-0.187146627,0.479491591,20.42664804,9.02815604,-48.99421182
4.71E+12,0.82914734,2.6004944,6.3964233,0.2998352,-0.24386597,0.4188385,20.724487,9.25293,-49.064636,,0.566143654,2.462676828,6.772693337,0.332618698,-0.215506298,0.449165045,20.57556752,9.14054302,-49.02942391
4.71E+12,0.74720764,2.6029816,6.270447,0.21636963,-0.24583435,0.3582611,20.724487,9.25293,-49.064636,,0.656675647,2.532829214,6.521570168,0.274494164,-0.230670324,0.403713073,20.65002726,9.19673651,-49.04702995
4.71E+12,0.6226654,2.5180054,6.4059143,0.10038757,-0.22468567,0.27641296,20.724487,9.25293,-49.064636,,0.639670524,2.525417307,6.463742234,0.187440867,-0.227677997,0.340063016,20.68725713,9.224833255,-49.05583298
4.71E+12,0.49461365,2.3992462,6.6858063,-0.0287323,-0.1885376,0.19055176,19.644165,8.174133,-50.115967,,0.567142087,2.462331754,6.574774267,0.079354284,-0.208107799,0.265307388,20.16571106,8.699483127,-49.58589999
4.71E+12,0.36904907,2.1889038,7.033127,-0.15705872,-0.15026855,0.10974121,19.644165,8.174133,-50.115967,,0.468095578,2.325617777,6.803950634,-0.038852218,-0.179188174,0.187524299,19.90493803,8.436808064,-49.85093349
4.71E+12,0.17175293,1.9023132,7.2991486,-0.2722168,-0.111953735,0.032592773,19.644165,8.174133,-50.115967,,0.319924254,2.113965488,7.051549617,-0.155534509,-0.145570955,0.110058536,19.77455152,8.305470532,-49.98345025
4.71E+12,-0.018035889,1.7184448,7.4240417,-0.36740112,-0.07572937,-0.03514099,19.644165,8.174133,-50.115967,,0.150944183,1.916205144,7.237795658,-0.261467815,-0.110650162,0.037458773,19.70935826,8.239801766,-50.04970862
4.71E+12,-0.2533722,1.4839935,7.7816772,-0.433609,-0.047409058,-0.08938599,19.541931,7.58667,-50.216675,,-0.051214009,1.700099322,7.509736429,-0.347538407,-0.07902961,-0.025963608,19.62564463,7.913235883,-50.13319181
4.71E+12,-0.48927307,1.3153381,8.027206,-0.48846436,-0.022140503,-0.13760376,19.541931,7.58667,-50.216675,,-0.270243539,1.507718711,7.768471215,-0.418001384,-0.050585057,-0.081783684,19.58378781,7.749952941,-50.17493341
4.71E+12,-0.6843109,1.0251007,8.561157,-0.51452637,-0.014282227,-0.17131042,19.541931,7.58667,-50.216675,,-0.47727722,1.266409706,8.164814107,-0.466263877,-0.032433642,-0.126547052,19.56285941,7.668311471,-50.1958042
4.71E+12,-0.87939453,0.7629547,8.823883,-0.51582336,-0.02116394,-0.19378662,19.541931,7.58667,-50.216675,,-0.678335875,1.014682203,8.494348554,-0.491043618,-0.026798791,-0.160166836,19.5523952,7.627490735,-50.2062396
4.71E+12,-1.2121277,0.43397522,8.911926,-0.4861145,-0.036254883,-0.20613098,19.694519,7.536316,-50.07019,,-0.945231787,0.724328711,8.703137277,-0.488579059,-0.031526837,-0.183148908,19.6234571,7.581903368,-50.1382148
4.71E+12,-1.6613159,0.1315155,8.781006,-0.4861145,-0.036254883,-0.20613098,19.694519,7.536316,-50.07019,,-1.303273844,0.427922106,8.742071638,-0.48734678,-0.03389086,-0.194639944,19.65898805,7.559109684,-50.1042024
4.71E+12,-1.8715973,-0.011199951,8.586029,-0.35542297,-0.061553955,-0.19403076,19.694519,7.536316,-50.07019,,-1.587435572,0.208361077,8.664050319,-0.421384875,-0.047722407,-0.194335352,19.67675353,7.547712842,-50.0871962
4.71E+12,-2.0245667,0.07397461,8.350952,-0.2752533,-0.06813049,-0.14448547,19.432068,8.584595,-50.837708,,-1.806001136,0.141167844,8.50750116,-0.348319087,-0.057926449,-0.169410411,19.55441076,8.066153921,-50.4624521
4.71E+12,-2.0142517,0.33636475,7.9937744,-0.20462036,-0.085250854,-0.08248901,19.432068,8.584595,-50.837708,,-1.910126418,0.238766297,8.25063778,-0.276469724,-0.071588651,-0.125949711,19.49323938,8.32537446,-50.65008005
4.71E+12,-1.7023773,0.5211334,7.773651,-0.1408844,-0.1113739,-0.011749268,19.432068,8.584595,-50.837708,,-1.806251859,0.379949848,8.01214439,-0.208677062,-0.091481276,-0.068849489,19.46265369,8.45498473,-50.74389403
4.71E+12,-1.3504639,0.63752747,7.5855255,-0.08380127,-0.138031,0.058029175,19.432068,8.584595,-50.837708,,-1.578357879,0.508738659,7.798834945,-0.146239166,-0.114756138,-0.005410157,19.44736085,8.519789865,-50.79080101
4.71E+12,-0.9708252,0.8221741,7.6138916,-0.043762207,-0.16699219,0.115112305,19.615173,8.114624,-50.55847,,-1.27459154,0.66545638,7.706363272,-0.095000686,-0.140874164,0.054851074,19.53126692,8.317206933,-50.67463551
4.71E+12,-0.6352234,0.99967957,7.5408325,-0.013244629,-0.19177246,0.15890503,19.615173,8.114624,-50.55847,,-0.95490747,0.832567975,7.623597886,-0.054122658,-0.166323312,0.106878052,19.57321996,8.215915466,-50.61655275
4.71E+12,-0.19882202,1.2527924,7.418625,0.019210815,-0.20803833,0.19189453,19.615173,8.114624,-50.55847,,-0.576864745,1.042680187,7.521111443,-0.017455921,-0.187180821,0.149386291,19.59419648,8.165269733,-50.58751138
4.71E+12,0.17164612,1.3480835,7.4111786,0.05293274,-0.21087646,0.2106018,19.615173,8.114624,-50.55847,,-0.202609312,1.195381844,7.466145022,0.017738409,-0.19902864,0.179994045,19.60468474,8.139946867,-50.57299069
4.71E+12,0.36865234,1.2216644,7.3559265,0.08331299,-0.20664978,0.21331787,19.694519,7.8796387,-50.405884,,0.083021514,1.208523122,7.411035761,0.0505257,-0.20283921,0.196655958,19.64960187,8.009792783,-50.48943734
4.71E+12,0.3222046,1.1860657,7.1704407,0.11798096,-0.19662476,0.20106506,19.694519,7.8796387,-50.405884,,0.202613057,1.197294411,7.29073823,0.08425333,-0.199731985,0.198860509,19.67206044,7.944715742,-50.44766067
4.71E+12,0.26945496,1.3320313,6.81514,0.15382385,-0.17738342,0.18475342,19.694519,7.8796387,-50.405884,,0.236034008,1.264662855,7.052939115,0.11903859,-0.188557703,0.191806964,19.68328972,7.912177221,-50.42677234
4.71E+12,0.24154663,1.4862518,6.555435,0.18623352,-0.15089417,0.16967773,19.694519,7.8796387,-50.405884,,0.238790319,1.375457328,6.804187058,0.152636055,-0.169725936,0.180742347,19.68890436,7.89590796,-50.41632817
4.71E+12,0.13108826,1.509613,6.4260254,0.21333313,-0.11885071,0.15931702,18.128967,8.874512,-49.71161,,0.18493929,1.442535164,6.615106229,0.182984592,-0.144288323,0.170029684,18.90893568,8.38520998,-50.06396908
4.71E+12,-0.111694336,1.4503021,6.3379974,0.22756958,-0.093673706,0.14912415,18.128967,8.874512,-49.71161,,0.036622477,1.446418632,6.476551814,0.205277086,-0.118981015,0.159576917,18.51895134,8.62986099,-49.88778954
4.71E+12,-0.33010864,1.3512878,6.2562714,0.23550415,-0.07258606,0.14012146,18.128967,8.874512,-49.71161,,-0.146743082,1.398853216,6.366411607,0.220390618,-0.095783537,0.149849188,18.32395917,8.752186495,-49.79969977
4.71E+12,-0.49137878,1.282608,6.188431,0.23947144,-0.051940918,0.13948059,18.128967,8.874512,-49.71161,,-0.319060931,1.340730608,6.277421304,0.229931029,-0.073862228,0.144664889,18.22646308,8.813349248,-49.75565489
4.71E+12,-0.62590027,1.2612152,6.166275,0.24107361,-0.03390503,0.1516571,19.667053,9.223938,-50.26703,,-0.4724806,1.300972904,6.221848152,0.23550232,-0.053883629,0.148160995,18.94675804,9.018643624,-50.01134244
4.71E+12,-0.7856903,1.2962494,6.1743927,0.23919678,-0.015686035,0.17599487,19.667053,9.223938,-50.26703,,-0.62908545,1.298611152,6.198120426,0.23734955,-0.034784832,0.162077932,19.30690552,9.121290812,-50.13918622
4.71E+12,-0.83729553,1.3740082,6.1044006,0.23625183,0.006515503,0.2118988,19.667053,9.223938,-50.26703,,-0.73319049,1.336309676,6.151260513,0.23680069,-0.014134664,0.186988366,19.48697926,9.172614406,-50.20310811
4.71E+12,-0.71113586,1.5167542,5.941269,0.2345581,0.029647827,0.2520752,19.667053,9.223938,-50.26703,,-0.722163175,1.426531938,6.046264756,0.235679395,0.007756581,0.219531783,19.57701613,9.198276203,-50.23506906
4.71E+12,-0.41767883,1.7666168,5.837631,0.23295593,0.04675293,0.29566956,20.037842,9.25293,-50.405884,,-0.569921003,1.596574369,5.941947878,0.234317662,0.027254756,0.257600672,19.80742907,9.225603101,-50.32047653
4.71E+12,-0.048339844,2.0831757,5.795349,0.22698975,0.05769348,0.33554077,20.037842,9.25293,-50.405884,,-0.309130423,1.839875034,5.868648439,0.230653706,0.042474118,0.296570721,19.92263553,9.239266551,-50.36318026
4.71E+12,0.31282043,2.4213257,5.7086487,0.21226501,0.06611633,0.36082458,20.037842,9.25293,-50.405884,,0.001845003,2.130600367,5.78864857,0.221459358,0.054295224,0.32869765,19.98023877,9.246098275,-50.38453213
4.71E+12,0.6697235,2.7170258,5.600708,0.1876831,0.07594299,0.36787415,20.037842,9.25293,-50.405884,,0.335784252,2.423813084,5.694678285,0.204571229,0.065119107,0.3482859,20.00904038,9.249514138,-50.39520807
4.71E+12,0.966156,2.9407349,5.55365,0.15220642,0.0884552,0.35350037,19.577026,8.180237,-51.75171,,0.650970126,2.682273992,5.624164142,0.178388825,0.076787153,0.350893135,19.79303319,8.714875569,-51.07345903
4.71E+12,1.1728668,3.1348877,5.563019,0.10913086,0.09965515,0.32173157,19.577026,8.180237,-51.75171,,0.911918463,2.908580846,5.593591571,0.143759842,0.088221152,0.336312353,19.6850296,8.447556284,-51.41258452
4.71E+12,1.1804504,3.306549,5.811676,0.06590271,0.099624634,0.2762909,19.577026,8.180237,-51.75171,,1.046184431,3.107564923,5.702633786,0.104831276,0.093922893,0.306301626,19.6310278,8.313896642,-51.58214726
4.71E+12,0.97102356,3.3509216,6.2135468,0.03125,0.075424194,0.21594238,19.577026,8.180237,-51.75171,,1.008603996,3.229243261,5.958090293,0.068040638,0.084673543,0.261122003,19.6040269,8.247066821,-51.66692863
4.71E+12,0.60443115,3.2281647,6.600891,0.014465332,0.02633667,0.14901733,19.830322,8.360291,-51.01013,,0.806517573,3.228703981,6.279490646,0.041252985,0.055505107,0.205069667,19.71717445,8.303678911,-51.33852931
4.71E+12,0.05810547,2.977478,7.1090393,0.020523071,-0.04777527,0.07914734,19.830322,8.360291,-51.01013,,0.432311521,3.10309099,6.694264973,0.030888028,0.003864918,0.142108503,19.77374822,8.331984955,-51.17432966
4.71E+12,-0.4119568,2.7573242,7.615448,0.050445557,-0.13928223,0.021316528,19.830322,8.360291,-51.01013,,0.010177361,2.930207595,7.154856487,0.040666793,-0.067708656,0.081712516,19.80203511,8.346137978,-51.09222983
4.71E+12,-0.7461853,2.5529938,8.034531,0.10057068,-0.23677063,-0.011169434,19.830322,8.360291,-51.01013,,-0.36800397,2.741600698,7.594693743,0.070618736,-0.152239643,0.035271541,19.81617856,8.353214489,-51.05117991
4.71E+12,-0.93473816,2.4134216,8.327072,0.16801453,-0.33309937,-0.011871338,19.865417,8.395386,-50.907898,,-0.651371065,2.577511149,7.960882872,0.119316633,-0.242669506,0.011700101,19.84079778,8.374300244,-50.97953896
4.71E+12,-0.97566223,2.3066254,8.558426,0.24761963,-0.41601563,0.012542725,19.865417,8.395386,-50.907898,,-0.813516647,2.442068274,8.259654436,0.183468132,-0.329342568,0.012121413,19.85310739,8.384843122,-50.94371848
4.71E+12,-0.9154358,2.3765259,8.692963,0.32025146,-0.4753418,0.0521698,19.865417,8.395386,-50.907898,,-0.864476224,2.409297087,8.476308718,0.251859796,-0.402342184,0.032145607,19.85926219,8.390114561,-50.92580824
4.71E+12,-0.7687073,2.5303802,8.63382,0.3926239,-0.51675415,0.10498047,19.865417,8.395386,-50.907898,,-0.816591762,2.469838644,8.555064359,0.322241848,-0.459548167,0.068563038,19.8623396,8.392750281,-50.91685312
4.71E+12,-0.5600281,2.6859436,8.547363,0.453125,-0.5296478,0.15625,20.523071,7.736206,-51.228333,,-0.688309931,2.577891122,8.551213679,0.387683424,-0.494597984,0.112406519,20.1927053,8.06447814,-51.07259306
4.71E+12,-0.27812195,2.8940582,8.495422,0.49441528,-0.51724243,0.19992065,20.523071,7.736206,-51.228333,,-0.48321594,2.735974661,8.52331784,0.441049352,-0.505920207,0.156163585,20.35788815,7.90034207,-51.15046303
4.71E+12,0.055358887,3.1754913,8.590561,0.5158539,-0.48399353,0.236969,20.523071,7.736206,-51.228333,,-0.213928527,2.95573298,8.55693942,0.478451626,-0.494956868,0.196566292,20.44047957,7.818274035,-51.18939801
4.71E+12,0.3735962,3.4074707,8.603714,0.5161743,-0.43440247,0.26057434,20.523071,7.736206,-51.228333,,0.079833837,3.18160184,8.58032671,0.497312963,-0.464679669,0.228570316,20.48177529,7.777240018,-51.20886551
4.71E+12,0.62586975,3.52388,8.661819,0.49951172,-0.37454224,0.26361084,20.387268,7.2113037,-50.75836,,0.352851793,3.35274092,8.621072855,0.498412341,-0.419610955,0.246090578,20.43452164,7.494271859,-50.98361275
4.71E+12,0.7481842,3.5641174,8.901993,0.4688263,-0.2975464,0.24682617,20.387268,7.2113037,-50.75836,,0.550517997,3.45842916,8.761532927,0.483619321,-0.358578677,0.246458374,20.41089482,7.352787779,-50.87098638
4.71E+12,0.63087463,3.6355438,9.343338,0.4267273,-0.21969604,0.21168518,20.387268,7.2113037,-50.75836,,0.590696313,3.54698648,9.052435464,0.45517331,-0.289137359,0.229071777,20.39908141,7.28204574,-50.81467319
4.71E+12,0.44122314,3.4929504,9.69075,0.37800598,-0.13719177,0.16319275,20.387268,7.2113037,-50.75836,,0.515959727,3.51996844,9.371592732,0.416589645,-0.213164564,0.196132264,20.39317471,7.24667472,-50.78651659
4.71E+12,0.16293335,3.3124237,9.891037,0.3298645,-0.04966736,0.113967896,20.387268,7.2113037,-50.75836,,0.339446538,3.41619607,9.631314866,0.373227073,-0.131415962,0.15505008,20.39022135,7.22898921,-50.7724383
4.71E+12,-0.12149048,3.131836,9.942947,0.3298645,-0.04966736,0.113967896,20.387268,7.2113037,-50.75836,,0.108978029,3.274016035,9.787130933,0.351545786,-0.090541661,0.134508988,20.38874468,7.220146455,-50.76539915
4.71E+12,-0.35557556,2.985077,10.058289,0.25509644,0.12927246,0.036010742,20.387268,7.2113037,-50.75836,,-0.123298765,3.129546518,9.922709966,0.303321113,0.019365399,0.085259865,20.38800634,7.215725077,-50.76187957
4.71E+12,-0.56430054,3.022995,10.181274,0.22058105,0.21128845,0.013046265,20.378113,7.1884155,-50.74005,,-0.343799653,3.076270759,10.05199198,0.261951082,0.115326925,0.049153065,20.38305967,7.202070289,-50.75096479
4.71E+12,-0.7455139,3.038269,10.231369,0.19882202,0.26480103,0.002563477,20.378113,7.1884155,-50.74005,,-0.544656776,3.057269879,10.14168049,0.230386551,0.190063977,0.025858271,20.38058633,7.195242894,-50.74550739
4.71E+12,-0.8742523,2.9524078,10.108185,0.18995667,0.2839508,-0.00302124,20.378113,7.1884155,-50.74005,,-0.709454538,3.00483884,10.12493275,0.21017161,0.237007389,0.011418515,20.37934967,7.191829197,-50.7427787
4.71E+12,-0.92633057,2.9483032,9.787079,0.19921875,0.26852417,-6.87E-04,20.378113,7.1884155,-50.74005,,-0.817892554,2.97657102,9.956005873,0.20469518,0.252765779,0.005365935,20.37873133,7.190122349,-50.74141435
4.71E+12,-0.8364563,2.984146,9.380066,0.21844482,0.21986389,0.002700806,18.62793,5.1208496,-50.750732,,-0.827174427,2.98035851,9.668035936,0.21157,0.236314835,0.00403337,19.50333067,6.155485974,-50.74607317
4.71E+12,-0.7240448,3.0625305,9.030457,0.2350769,0.14408875,0.006835938,18.62793,5.1208496,-50.750732,,-0.775609614,3.021444505,9.349246468,0.22332345,0.190201792,0.005434654,19.06563033,5.638167787,-50.74840259
4.71E+12,-0.5264282,3.014801,8.925934,0.24229431,0.024673462,0.010192871,18.62793,5.1208496,-50.750732,,-0.651018907,3.018122752,9.137590234,0.23280888,0.107437627,0.007813762,18.84678017,5.379508694,-50.74956729
4.71E+12,-0.46618652,2.9697266,9.132645,0.23362732,-0.11871338,0.005874634,18.62793,5.1208496,-50.750732,,-0.558602713,2.993924676,9.135117617,0.2332181,-0.005637876,0.006844198,18.73735508,5.250179147,-50.75014965
4.71E+12,-0.4011383,2.908661,9.549515,0.21546936,-0.28390503,-0.006881714,17.118835,4.6188354,-51.24359,,-0.479870507,2.951292838,9.342316309,0.22434373,-0.144771453,-1.88E-05,17.92809504,4.934507273,-50.99686982
4.71E+12,-0.29493713,2.8925934,10.112228,0.19171143,-0.4590454,-0.021331787,17.118835,4.6188354,-51.24359,,-0.387403818,2.921943119,9.727272154,0.20802758,-0.301908427,-0.010675272,17.52346502,4.776671337,-51.12022991
4.71E+12,-0.17253113,2.8886719,10.752701,0.169281,-0.6282501,-0.032226563,17.118835,4.6188354,-51.24359,,-0.279967474,2.90530751,10.23998658,0.18865429,-0.465079263,-0.021450918,17.32115001,4.697753368,-51.18190996
4.71E+12,-0.01083374,2.8286133,11.491379,0.14631653,-0.77993774,-0.04093933,17.118835,4.6188354,-51.24359,,-0.145400607,2.866960405,10.86568279,0.16748541,-0.622508502,-0.031195124,17.21999251,4.658294384,-51.21274998
4.71E+12,0.12539673,2.741272,12.3107605,0.11416626,-0.90615845,-0.052337646,17.266846,4.6066284,-51.254272,,-0.010001939,2.804116202,11.58822164,0.140825835,-0.764333476,-0.041766385,17.24341925,4.632461392,-51.23351099
4.71E+12,0.19848633,2.6630096,13.127731,0.06736755,-0.9706116,-0.065826416,17.266846,4.6066284,-51.254272,,0.094242196,2.733562901,12.35797632,0.104096693,-0.867472538,-0.0537964,17.25513263,4.619544896,-51.24389149
4.71E+12,0.28471375,2.6387787,13.943512,9.16E-04,-0.9670563,-0.08039856,17.266846,4.6066284,-51.254272,,0.189477973,2.686170801,13.15074416,0.05250611,-0.917264419,-0.06709748,17.26098931,4.613086648,-51.24908175
4.71E+12,0.39646912,2.5523071,14.75621,-0.08049011,-0.90008545,-0.09609985,17.266846,4.6066284,-51.254272,,0.292973546,2.61923895,13.95347708,-0.013992,-0.908674934,-0.081598665,17.26391766,4.609857524,-51.25167687
4.71E+12,0.443573,2.4502258,15.388794,-0.15878296,-0.7872772,-0.11323547,19.216919,4.4311523,-51.454163,,0.368273273,2.534732375,14.67113554,-0.08638748,-0.847976067,-0.097417068,18.24041833,4.520504912,-51.35291994
4.71E+12,0.32887268,2.4092255,15.873062,-0.22789001,-0.6377411,-0.13510132,19.216919,4.4311523,-51.454163,,0.348572977,2.471978938,15.27209877,-0.157138745,-0.742858584,-0.116259194,18.72866866,4.475828606,-51.40354147
4.71E+12,0.15594482,2.256424,16.067307,-0.28544617,-0.45629883,-0.16636658,19.216919,4.4311523,-51.454163,,0.252258898,2.364201469,15.66970289,-0.221292458,-0.599578707,-0.141312887,18.97279383,4.453490453,-51.42885223
4.71E+12,0.0834198,2.027176,16.03891,-0.32048035,-0.27619934,-0.20129395,19.216919,4.4311523,-51.454163,,0.167839349,2.195688734,15.85430644,-0.270886404,-0.437889023,-0.171303418,19.09485642,4.442321377,-51.44150762
4.71E+12,-0.032211304,1.859848,15.8749695,-0.33587646,-0.10153198,-0.23460388,17.805481,4.2755127,-51.913452,,0.067814023,2.027768367,15.86463797,-0.303381432,-0.269710502,-0.202953649,18.45016871,4.358917038,-51.67747981
4.71E+12,-0.20707703,1.7654724,15.463974,-0.33903503,0.05583191,-0.26568604,17.805481,4.2755127,-51.913452,,-0.069631504,1.896620384,15.66430599,-0.321208231,-0.106939296,-0.234319845,18.12782485,4.317214869,-51.7954659
4.71E+12,-0.33895874,1.7103577,14.918549,-0.3368988,0.1874237,-0.2940216,17.805481,4.2755127,-51.913452,,-0.204295122,1.803489042,15.29142749,-0.329053515,0.040242202,-0.264170722,17.96665293,4.296363785,-51.85445895
4.71E+12,-0.41734314,1.6460571,14.360168,-0.33361816,0.29611206,-0.3202057,17.805481,4.2755127,-51.913452,,-0.310819131,1.724773071,14.82579775,-0.331335838,0.168177131,-0.292188211,17.88606696,4.285938242,-51.88395548
4.71E+12,-0.44218445,1.5654144,13.810333,-0.32833862,0.36647034,-0.34124756,17.713928,4.3655396,-51.82495,,-0.37650179,1.645093735,14.31806537,-0.329837229,0.267323736,-0.316717886,17.79999748,4.325738921,-51.85445274
4.71E+12,-0.4766388,1.5030975,13.405518,-0.32244873,0.39379883,-0.35609436,17.713928,4.3655396,-51.82495,,-0.426570295,1.574095618,13.86179169,-0.326142979,0.330561283,-0.336406123,17.75696274,4.345639261,-51.83970137
4.71E+12,-0.5525818,1.3736877,13.140671,-0.31698608,0.38415527,-0.36987305,17.713928,4.3655396,-51.82495,,-0.489576048,1.473891659,13.50123134,-0.32156453,0.357358276,-0.353139586,17.73544537,4.35558943,-51.83232568
4.71E+12,-0.76600647,1.1801453,12.872025,-0.30873108,0.34448242,-0.3812561,17.713928,4.3655396,-51.82495,,-0.627791259,1.327018479,13.18662817,-0.315147805,0.350920348,-0.367197843,17.72468669,4.360564515,-51.82863784
4.71E+12,-1.0380096,1.0194855,12.443939,-0.29464722,0.29354858,-0.3832245,16.989136,5.142212,-51.419067,,-0.832900429,1.17325199,12.81528359,-0.304897512,0.322234464,-0.375211172,17.35691134,4.751388258,-51.62385242
4.71E+12,-1.2657928,0.95458984,11.996216,-0.28108215,0.24081421,-0.37374878,16.989136,5.142212,-51.419067,,-1.049346615,1.063920915,12.40574979,-0.292989831,0.281524337,-0.374479976,17.17302367,4.946800129,-51.52145971
4.71E+12,-1.3375244,0.99079895,11.560699,-0.27841187,0.19447327,-0.35110474,16.989136,5.142212,-51.419067,,-1.193435507,1.027359932,11.9832244,-0.285700851,0.237998804,-0.362792358,17.08107984,5.044506064,-51.47026336
4.71E+12,-1.2330475,1.0757904,11.323441,-0.2906494,0.14996338,-0.31611633,16.989136,5.142212,-51.419067,,-1.213241504,1.051575166,11.6533327,-0.288175125,0.193981092,-0.339454344,17.03510792,5.093359032,-51.44466518
4.71E+12,-0.98924255,1.19841,11.2374115,-0.31843567,0.10038757,-0.27308655,16.259766,6.163025,-52.416992,,-1.101242027,1.124992583,11.4453721,-0.303305398,0.147184331,-0.306270447,16.64743696,5.628192016,-51.93082859
4.71E+12,-0.63186646,1.288269,11.518753,-0.35603333,0.04396057,-0.22741699,16.259766,6.163025,-52.416992,,-0.866554243,1.206630792,11.48206255,-0.329669364,0.09557245,-0.266843718,16.45360148,5.895608508,-52.17391029
4.71E+12,-0.3433075,1.4095306,11.837875,-0.3907013,-0.017852783,-0.18980408,16.259766,6.163025,-52.416992,,-0.604930872,1.308080696,11.65996877,-0.360185332,0.038859834,-0.228323899,16.35668374,6.029316754,-52.29545115
4.71E+12,0.02229309,1.4893494,12.356857,-0.41764832,-0.09416199,-0.15623474,16.259766,6.163025,-52.416992,,-0.291318891,1.398715048,12.00841289,-0.388916826,-0.027651078,-0.19227932,16.30822487,6.096170877,-52.35622157
4.71E+12,0.5282898,1.6028748,12.892563,-0.42092896,-0.17427063,-0.13066101,16.360474,6.466675,-52.18506,,0.118485455,1.500794924,12.45048794,-0.404922893,-0.100960854,-0.161470165,16.33434943,6.281422939,-52.27064079
4.71E+12,0.91874695,1.6504364,13.380035,-0.39938354,-0.24816895,-0.113220215,16.360474,6.466675,-52.18506,,0.518616202,1.575615662,12.91526147,-0.402153216,-0.174564902,-0.13734519,16.34741172,6.374048969,-52.22785039
4.71E+12,1.1276398,1.7612915,13.840469,-0.35487366,-0.3093567,-0.10441589,16.360474,6.466675,-52.18506,,0.823128001,1.668453581,13.37786524,-0.378513438,-0.241960801,-0.12088054,16.35394286,6.420361985,-52.2064552
4.71E+12,1.1614532,1.7248993,13.97847,-0.28837585,-0.3514862,-0.10366821,16.360474,6.466675,-52.18506,,0.992290601,1.69667644,13.67816762,-0.333444644,-0.296723501,-0.112274375,16.35720843,6.443518492,-52.1957576
4.71E+12,1.084198,1.7000122,14.036621,-0.2083435,-0.37330627,-0.11112976,16.775513,7.4142456,-51.24359,,1.0382443,1.69834432,13.85739431,-0.270894072,-0.335014885,-0.111702067,16.56636071,6.928882046,-51.7196738
4.71E+12,1.1602783,1.6431732,13.793137,-0.10220337,-0.3801117,-0.11732483,16.775513,7.4142456,-51.24359,,1.0992613,1.67075876,13.82526565,-0.186548721,-0.357563293,-0.114513449,16.67093686,7.171563823,-51.4816319
4.71E+12,1.2931824,1.7159119,13.459656,0.003494263,-0.36141968,-0.11230469,16.775513,7.4142456,-51.24359,,1.19622185,1.69333533,13.64246083,-0.091527229,-0.359491486,-0.113409069,16.72322493,7.292904712,-51.36261095
4.71E+12,1.3718567,1.7167816,13.006668,0.105270386,-0.31796265,-0.10467529,16.775513,6.335449,-51.24359,,1.284039275,1.705058465,13.32456441,0.006871578,-0.338727068,-0.10904218,16.74936896,6.814176856,-51.30310047
4.71E+12,1.4175415,1.6000366,12.519333,0.19326782,-0.25646973,-0.09500122,16.775513,6.335449,-51.24359,,1.350790388,1.652547533,12.92194871,0.100069699,-0.297598399,-0.1020217,16.76244098,6.574812928,-51.27334524
4.71E+12,1.3904572,1.6158295,11.921158,0.19326782,-0.25646973,-0.09500122,16.775513,6.335449,-51.24359,,1.370623794,1.634188516,12.42155335,0.14666876,-0.277034065,-0.09851146,16.76897699,6.455130964,-51.25846762
4.71E+12,1.3852692,1.6635742,10.891907,0.33081055,-0.0945282,-0.07595825,16.775513,6.335449,-51.24359,,1.377946497,1.648881358,11.65673018,0.238739655,-0.185781132,-0.087234855,16.772245,6.395289982,-51.25102881
4.71E+12,1.3550873,1.6897278,10.016006,0.39544678,-3.97E-04,-0.06402588,17.175293,6.5567017,-51.54724,,1.366516898,1.669304579,10.83636809,0.317093217,-0.09308893,-0.075630367,16.973769,6.475995841,-51.3991344
4.71E+12,1.32547,1.7052002,9.023758,0.4431305,0.07583618,-0.051071167,17.175293,6.5567017,-51.54724,,1.345993449,1.68725239,9.930063044,0.380111859,-0.008626375,-0.063350767,17.074531,6.51634877,-51.4731872
4.71E+12,1.3672638,1.7016754,8.10289,0.47784424,0.13301086,-0.03918457,17.175293,6.5567017,-51.54724,,1.356628625,1.694463895,9.016476522,0.428978049,0.062192242,-0.051267669,17.124912,6.536525235,-51.5102136
4.71E+12,1.4721527,1.83255,7.3118896,0.49369812,0.17448425,-0.028305054,17.175293,6.5567017,-51.54724,,1.414390662,1.763506947,8.164183061,0.461338085,0.118338246,-0.039786361,17.1501025,6.546613468,-51.5287268
4.71E+12,1.5987244,1.9880371,6.6200714,0.49183655,0.19487,-0.01789856,17.89093,7.2402954,-52.36969,,1.506557531,1.875772024,7.392127231,0.476587317,0.156604123,-0.028842461,17.52051625,6.893454434,-51.9492084
4.71E+12,1.6936646,2.1380157,6.003372,0.47306824,0.19598389,-0.011169434,17.89093,7.2402954,-52.36969,,1.600111066,2.006893862,6.697749615,0.474827779,0.176294007,-0.020005947,17.70572312,7.066874917,-52.1594492
4.71E+12,1.795578,2.2346954,5.486786,0.434906,0.18011475,-0.016784668,17.89093,7.2402954,-52.36969,,1.697844533,2.120794631,6.092267808,0.454866889,0.178204378,-0.018395308,17.79832656,7.153585158,-52.2645696
4.71E+12,1.875473,2.3110962,5.0870056,0.38728333,0.15246582,-0.03112793,17.89093,7.2402954,-52.36969,,1.786658766,2.215945415,5.589636704,0.42107511,0.165335099,-0.024761619,17.84462828,7.196940279,-52.3171298
4.71E+12,1.9673767,2.3667145,4.861557,0.3231964,0.11782837,-0.051605225,16.775513,7.3654175,-52.249146,,1.877017733,2.291329958,5.225596852,0.372135755,0.141581735,-0.038183422,17.31007064,7.28117889,-52.2831379
4.71E+12,1.9632874,2.3945923,4.8074036,0.2475586,0.07647705,-0.08026123,16.775513,7.3654175,-52.249146,,1.920152567,2.342961129,5.016500226,0.309847177,0.109029392,-0.059222326,17.04279182,7.323298195,-52.26614195
4.71E+12,1.9850159,2.4140015,4.8598785,0.16659546,0.033187866,-0.114715576,16.775513,7.3654175,-52.249146,,1.952584233,2.378481314,4.938189363,0.238221319,0.071108629,-0.086968951,16.90915241,7.344357847,-52.25764398
4.71E+12,1.9884949,2.3933716,5.1677246,0.08439636,-0.012405396,-0.15019226,16.775513,7.3654175,-52.249146,,1.970539567,2.385926457,5.052956981,0.161308839,0.029351617,-0.118580605,16.84233271,7.354887674,-52.25339499
4.71E+12,1.8042145,2.2774048,5.554352,-0.001373291,-0.064819336,-0.19184875,16.775513,7.1411133,-51.809692,,1.887377033,2.331665629,5.303654491,0.079967774,-0.01773386,-0.155214678,16.80892285,7.248000487,-52.03154349
4.71E+12,1.6531677,2.117981,5.963394,-0.071884155,-0.11357117,-0.2344513,16.775513,7.1411133,-51.809692,,1.770272367,2.224823314,5.633524245,0.00404181,-0.065652515,-0.194832989,16.79221793,7.194556893,-51.92061775
4.71E+12,1.5973206,2.0707397,6.434784,-0.12684631,-0.15988159,-0.27488708,16.775513,7.1411133,-51.809692,,1.683796483,2.147781507,6.034154123,-0.06140225,-0.112767052,-0.234860034,16.78386546,7.167835097,-51.86515487
4.71E+12,1.5391083,2.014511,6.8405914,-0.16629028,-0.20223999,-0.30847168,16.775513,7.1411133,-51.809692,,1.611452392,2.081146254,6.437372761,-0.113846265,-0.157503521,-0.271665857,16.77968923,7.154474198,-51.83742344
4.71E+12,1.4450073,1.8874817,7.14386,-0.18644714,-0.23744202,-0.33506775,17.185974,6.854248,-51.42212,,1.528229846,1.984313977,6.790616381,-0.150146703,-0.197472771,-0.303366804,16.98283162,7.004361099,-51.62977172
4.71E+12,1.3250885,1.8021088,7.3684387,-0.1895752,-0.2636261,-0.36001587,17.185974,6.854248,-51.42212,,1.426659173,1.893211388,7.07952754,-0.169860951,-0.230549435,-0.331691337,17.08440281,6.92930455,-51.52594586
4.71E+12,1.2093964,1.76828,7.559067,-0.17658997,-0.28378296,-0.38308716,17.185974,6.854248,-51.42212,,1.318027786,1.830745694,7.31929727,-0.173225461,-0.257166198,-0.357389248,17.1351884,6.891776275,-51.47403293
4.71E+12,1.1595001,1.734436,7.7186584,-0.15159607,-0.30337524,-0.39900208,17.185974,6.854248,-51.42212,,1.238763943,1.782590847,7.518977835,-0.162410765,-0.280270719,-0.378195664,17.1605812,6.873012137,-51.44807646
4.71E+12,1.1540222,1.7110901,7.7982025,-0.11882019,-0.32409668,-0.40933228,17.977905,7.192993,-52.416992,,1.196393072,1.746840474,7.658590168,-0.140615478,-0.302183699,-0.393763972,17.5692431,7.033002569,-51.93253423
4.71E+12,1.184845,1.7653656,7.7261505,-0.08216858,-0.33677673,-0.41516113,17.977905,7.192993,-52.416992,,1.190619036,1.756103037,7.692370334,-0.111392029,-0.319480215,-0.404462551,17.77357405,7.112997784,-52.17476312
4.71E+12,1.2962036,1.861618,7.5828247,-0.051116943,-0.33410645,-0.41885376,17.977905,7.192993,-52.416992,,1.243411318,1.808860518,7.637597517,-0.081254486,-0.326793332,-0.411658156,17.87573953,7.152995392,-52.29587756
4.71E+12,1.3579102,1.9290009,7.5287476,-0.031921387,-0.3113861,-0.42500305,17.977905,7.192993,-52.416992,,1.300660759,1.868930709,7.583172558,-0.056587936,-0.319089716,-0.418330603,17.92682226,7.172994196,-52.35643478
4.71E+12,1.295517,1.9375458,7.499298,-0.028579712,-0.26837158,-0.43681335,17.640686,7.797241,-51.693726,,1.298088879,1.903238255,7.541235279,-0.042583824,-0.293730648,-0.427571976,17.78375413,7.485117598,-52.02508039
4.71E+12,1.1429443,1.9224854,7.523163,-0.037231445,-0.21434021,-0.4530182,17.640686,7.797241,-51.693726,,1.22051659,1.912861827,7.53219914,-0.039907635,-0.254035429,-0.440295088,17.71222007,7.641179299,-51.85940319
4.71E+12,1.0151825,1.8774109,7.467087,-0.047851563,-0.15435791,-0.47187805,17.640686,7.797241,-51.693726,,1.117849545,1.895136364,7.49964307,-0.043879599,-0.20419667,-0.456086569,17.67645303,7.71921015,-51.7765646
4.71E+12,0.8851929,1.8326721,7.3162994,-0.052642822,-0.093307495,-0.48719788,17.640686,7.797241,-51.693726,,1.001521222,1.863904232,7.407971235,-0.04826121,-0.148752082,-0.471642225,17.65856952,7.758225575,-51.7351453
4.71E+12,0.7338257,1.742569,7.0355377,-0.051956177,-0.037994385,-0.4982605,16.90979,7.9727173,-51.182556,,0.867673461,1.803236616,7.221754467,-0.050108694,-0.093373234,-0.484951362,17.28417976,7.865471437,-51.45885065
4.71E+12,0.59721375,1.7404327,6.7460175,-0.04676819,0.015029907,-0.5042877,16.90979,7.9727173,-51.182556,,0.732443606,1.771834658,6.983885984,-0.048438442,-0.039171663,-0.494619531,17.09698488,7.919094369,-51.32070332
4.71E+12,0.484787,1.7877502,6.4903717,-0.039260864,0.060653687,-0.5036926,16.90979,7.9727173,-51.182556,,0.608615303,1.779792429,6.737128842,-0.043849653,0.010741012,-0.499156066,17.00338744,7.945905834,-51.25162966
4.71E+12,0.48364258,1.8177338,6.425232,-0.036499023,0.097473145,-0.49827576,16.90979,7.9727173,-51.182556,,0.546128941,1.798763114,6.581180421,-0.040174338,0.054107078,-0.498715913,16.95658872,7.959311567,-51.21709283
4.71E+12,0.6354675,1.8878632,6.5056458,-0.037078857,0.120651245,-0.4900818,16.603088,6.8496704,-52.0813,,0.590798221,1.843313157,6.54341311,-0.038626597,0.087379162,-0.494398856,16.77983836,7.404490984,-51.64919642
4.71E+12,0.7787781,1.9330597,6.576935,-0.034744263,0.12579346,-0.4813385,16.603088,6.8496704,-52.0813,,0.68478816,1.888186429,6.560174055,-0.03668543,0.106586311,-0.487868678,16.69146318,7.127080692,-51.86524821
4.71E+12,0.7405548,1.9440155,6.717453,-0.023498535,0.11701965,-0.4788208,16.603088,6.8496704,-52.0813,,0.71267148,1.916100964,6.638813528,-0.030091983,0.11180298,-0.483344739,16.64727559,6.988375546,-51.9732741
4.71E+12,0.55851746,1.9195862,6.7612305,0.006439209,0.09025574,-0.4812317,16.603088,6.8496704,-52.0813,,0.63559447,1.917843582,6.700022014,-0.011826387,0.10102936,-0.48228822,16.62518179,6.919022973,-52.02728705
4.71E+12,0.30485535,1.8629608,6.594757,0.0554657,0.046401978,-0.48735046,15.975952,6.692505,-52.233887,,0.47022491,1.890402191,6.647389507,0.021819657,0.073715669,-0.48481934,16.3005669,6.805763986,-52.13058703
4.71E+12,0.13804626,1.8001862,6.5196075,0.11328125,-0.005966187,-0.4900818,15.975952,6.692505,-52.233887,,0.304135585,1.845294196,6.583498503,0.067550453,0.033874741,-0.48745057,16.13825945,6.749134493,-52.18223701
4.71E+12,0.07736206,1.7700653,6.3522034,0.16621399,-0.055404663,-0.48353577,15.975952,6.692505,-52.233887,,0.190748823,1.807679748,6.467850952,0.116882222,-0.010764961,-0.48549317,16.05710572,6.720819747,-52.20806201
4.71E+12,2.14E-04,1.6987457,6.3339996,0.20181274,-0.08772278,-0.46392822,15.975952,6.692505,-52.233887,,0.095481223,1.753212724,6.400925276,0.159347481,-0.04924387,-0.474710695,16.01652886,6.706662373,-52.2209745
4.71E+12,-0.01399231,1.8009033,6.335495,0.22109985,-0.10394287,-0.43797302,15.792847,7.2296143,-51.394653,,0.040744456,1.777058012,6.368210138,0.190223665,-0.07659337,-0.456341857,15.90468793,6.968138337,-51.80781375
4.71E+12,0.12782288,1.8465576,6.4230957,0.2368164,-0.11514282,-0.40670776,15.792847,7.2296143,-51.394653,,0.084283668,1.811807806,6.395652919,0.213520033,-0.095868095,-0.431524809,15.84876747,7.098876318,-51.60123338
4.71E+12,0.23570251,1.8816986,6.5742188,0.24674988,-0.12495422,-0.3762207,15.792847,7.2296143,-51.394653,,0.159993089,1.846753203,6.484935859,0.230134956,-0.110411158,-0.403872754,15.82080723,7.164245309,-51.49794319
4.71E+12,0.3607025,1.9685059,6.6056976,0.25442505,-0.13020325,-0.34890747,16.43219,8.052063,-50.238037,,0.260347795,1.907629551,6.54531673,0.242280003,-0.120307204,-0.376390112,16.12649862,7.608154155,-50.86799009
4.71E+12,0.50187683,2.0872192,6.5849304,0.26190186,-0.12208557,-0.3262024,16.43219,8.052063,-50.238037,,0.381112312,1.997424376,6.565123565,0.252090932,-0.121196387,-0.351296256,16.27934431,7.830108577,-50.55301355
4.71E+12,0.6881561,2.2045593,6.6933746,0.26489258,-0.10342407,-0.310318,16.43219,8.052063,-50.238037,,0.534634206,2.100991838,6.629249082,0.258491756,-0.112310228,-0.330807128,16.35576715,7.941085789,-50.39552527
4.71E+12,0.6938629,2.3059845,6.8107452,0.26385498,-0.0821228,-0.30126953,16.43219,8.052063,-50.238037,,0.614248553,2.203488169,6.719997141,0.261173368,-0.097216514,-0.316038329,16.39397858,7.996574394,-50.31678114
4.71E+12,0.6521454,2.3079987,6.8826294,0.2566986,-0.05491638,-0.30418396,16.16211,7.7819824,-51.197815,,0.633196977,2.255743434,6.801313271,0.258935984,-0.076066447,-0.310111145,16.27804429,7.889278397,-50.75729807
4.71E+12,0.5844116,2.3442383,7.034073,0.24908447,-0.027832031,-0.3117981,16.16211,7.7819824,-51.197815,,0.608804288,2.299990867,6.917693135,0.254010227,-0.051949239,-0.310954622,16.22007714,7.835630399,-50.97755653
4.71E+12,0.5904999,2.3843842,7.2011414,0.24253845,-0.002685547,-0.3188324,16.16211,7.7819824,-51.197815,,0.599652094,2.342187534,7.059417268,0.248274338,-0.027317393,-0.314893511,16.19109357,7.808806399,-51.08768577
4.71E+12,0.5786133,2.3824158,7.476227,0.24360657,0.014755249,-0.32173157,16.16211,7.7819824,-51.197815,,0.589132697,2.362301667,7.267822134,0.245940454,-0.006281072,-0.318312541,16.17660179,7.7953944,-51.14275038
4.71E+12,0.49432373,2.3809967,7.58519,0.25045776,0.025482178,-0.32337952,15.733337,6.9869995,-52.615356,,0.541728214,2.371649183,7.426506067,0.248199107,0.009600553,-0.32084603,15.95496939,7.39119695,-51.87905319
4.71E+12,0.3065796,2.3896332,7.6953125,0.26000977,0.03050232,-0.32658386,15.733337,6.9869995,-52.615356,,0.424153907,2.380641192,7.560909283,0.254104439,0.020051437,-0.323714945,15.8441532,7.189098225,-52.2472046
4.71E+12,0.22706604,2.4612732,7.674103,0.27833557,0.03463745,-0.3230133,15.733337,6.9869995,-52.615356,,0.325609973,2.420957196,7.617506142,0.266220004,0.027344443,-0.323364123,15.7887451,7.088048862,-52.4312803
4.71E+12,0.1391449,2.5321045,7.59346,0.29467773,0.033828735,-0.31347656,15.733337,6.9869995,-52.615356,,0.232377437,2.476530848,7.605483071,0.280448867,0.030586589,-0.318420341,15.76104105,7.037524181,-52.52331815
4.71E+12,0.050811768,2.5765991,7.58992,0.31254578,0.02281189,-0.2975769,15.57312,6.5063477,-53.086853,,0.141594602,2.526564974,7.597701535,0.296497324,0.02669924,-0.307998621,15.66708052,6.771935941,-52.80508557
4.71E+12,-0.08091736,2.5652466,7.7053223,0.33270264,0.00617981,-0.27957153,15.57312,6.5063477,-53.086853,,0.030338621,2.545905787,7.651511918,0.314599982,0.016439525,-0.293785075,15.62010026,6.63914182,-52.94596929
4.71E+12,-0.18916321,2.6141357,7.811447,0.34803772,-0.019897461,-0.26011658,15.57312,6.5063477,-53.086853,,-0.079412294,2.580020743,7.731479459,0.331318851,-0.001728968,-0.276950828,15.59661013,6.57274476,-53.01641114
4.71E+12,-0.18618774,2.682602,7.9030457,0.3625183,-0.05845642,-0.2386322,15.57312,6.5063477,-53.086853,,-0.132800017,2.631311372,7.817262579,0.346918575,-0.030092694,-0.257791514,15.58486507,6.53954623,-53.05163207
4.71E+12,-0.24395752,2.7545013,8.161453,0.37934875,-0.110961914,-0.21104431,16.47644,5.8029175,-52.20337,,-0.188378769,2.692906336,7.98935779,0.363133663,-0.070527304,-0.234417912,16.03065253,6.171231865,-52.62750104
4.71E+12,-0.29174805,2.791031,8.526291,0.39421082,-0.16520691,-0.1822815,16.47644,5.8029175,-52.20337,,-0.240063409,2.741968668,8.257824395,0.378672241,-0.117867107,-0.208349706,16.25354627,5.987074683,-52.41543552
4.71E+12,-0.32798767,2.8098602,9.017899,0.410141,-0.21742249,-0.15235901,16.47644,5.8029175,-52.20337,,-0.28402554,2.775914434,8.637861697,0.394406621,-0.167644799,-0.180354358,16.36499313,5.894996091,-52.30940276
4.71E+12,-0.39076233,2.843979,9.476639,0.43051147,-0.2597351,-0.122283936,16.47644,5.8029175,-52.20337,,-0.337393935,2.809946717,9.057250349,0.412459045,-0.213689949,-0.151319147,16.42071657,5.848956796,-52.25638638
4.71E+12,-0.40480042,2.9156952,9.774063,0.45542908,-0.29019165,-0.09370422,16.708374,5.9188843,-51.57776,,-0.371097177,2.862820958,9.415656674,0.433944063,-0.2519408,-0.122511683,16.56454528,5.883920548,-51.91707319
4.71E+12,-0.26200867,3.0737152,9.87912,0.489151,-0.30949402,-0.06227112,16.708374,5.9188843,-51.57776,,-0.316552924,2.968268079,9.647388337,0.461547531,-0.28071741,-0.092391402,16.63645964,5.901402424,-51.74741659
4.71E+12,0.037582397,3.2961884,9.921387,0.5333252,-0.31726074,-0.026428223,16.708374,5.9188843,-51.57776,,-0.139485263,3.13222824,9.784387669,0.497436366,-0.298989075,-0.059409812,16.67241682,5.910143362,-51.6625883
4.71E+12,0.331604,3.4844818,9.962585,0.5753174,-0.31944275,0.002990723,16.708374,5.9188843,-51.57776,,0.096059368,3.30835502,9.873486334,0.536376883,-0.309215912,-0.028209545,16.69039541,5.914513831,-51.62017415
4.71E+12,0.48016357,3.5929108,9.828995,0.61172485,-0.31932068,0.020629883,16.43219,6.335449,-51.57776,,0.288111469,3.45063291,9.851240667,0.574050866,-0.314268296,-0.003789831,16.56129271,6.124981415,-51.59896707
4.71E+12,0.5134125,3.6381989,9.502686,0.6431732,-0.32250977,0.023788452,16.43219,6.335449,-51.57776,,0.400761985,3.544415905,9.676963334,0.608612033,-0.318389033,0.009999311,16.49674135,6.230215208,-51.58836354
4.71E+12,0.56422424,3.6929016,9.057419,0.666275,-0.33561707,0.017181396,16.43219,6.335449,-51.57776,,0.482493112,3.618658752,9.367191167,0.637443517,-0.327003052,0.013590353,16.46446568,6.282832104,-51.58306177
4.71E+12,0.70240784,3.8353424,8.608292,0.6702423,-0.3598175,0.006668091,16.43219,6.335449,-51.57776,,0.592450476,3.727000576,8.987741583,0.653842908,-0.343410276,0.010129222,16.44832784,6.309140552,-51.58041088
4.71E+12,0.87275696,3.9676514,8.3888855,0.63861084,-0.38972473,-0.004577637,15.649414,5.999756,-52.775574,,0.732603718,3.847325988,8.688313542,0.646226874,-0.366567503,0.002775793,16.04887092,6.154448276,-52.17799244
4.71E+12,0.95700073,4.014511,8.587463,0.570282,-0.4190979,-0.020248413,15.649414,5.999756,-52.775574,,0.844802224,3.930918494,8.637888271,0.608254437,-0.392832701,-0.00873631,15.84914246,6.077102138,-52.47678322
4.71E+12,0.89512634,3.9282074,9.163544,0.47061157,-0.45355225,-0.04307556,15.649414,5.999756,-52.775574,,0.869964282,3.929562947,8.900716135,0.539433004,-0.423192476,-0.025905935,15.74927823,6.038429069,-52.62617861
4.71E+12,0.73983765,3.7898254,9.950867,0.35525513,-0.49076843,-0.07267761,15.649414,5.999756,-52.775574,,0.804900966,3.859694174,9.425791568,0.447344067,-0.456980453,-0.049291773,15.69934611,6.019092534,-52.70087631
4.71E+12,0.48831177,3.5949554,10.777008,0.2450409,-0.5188904,-0.09983826,15.229797,5.366516,-52.537537,,0.646606368,3.727324787,10.10139978,0.346192483,-0.487935426,-0.074565016,15.46457156,5.692804267,-52.61920665
4.71E+12,0.19311523,3.3269958,11.667191,0.13772583,-0.53596497,-0.12104797,15.229797,5.366516,-52.537537,,0.419860799,3.527160293,10.88429539,0.241959157,-0.511950198,-0.097806493,15.34718428,5.529660134,-52.57837183
4.71E+12,0.03340149,3.1114502,12.607101,0.04559326,-0.5322113,-0.12689209,15.229797,5.366516,-52.537537,,0.226631145,3.319305247,11.7456982,0.143776208,-0.522080749,-0.112349292,15.28849064,5.448088067,-52.55795441
4.71E+12,-0.032440186,2.882492,13.669403,-0.031402588,-0.5026245,-0.117263794,15.229797,5.366516,-52.537537,,0.097095479,3.100898623,12.7075506,0.05618681,-0.512352625,-0.114806543,15.25914382,5.407302033,-52.54774571
4.71E+12,-0.110565186,2.7706757,14.81752,-0.0904541,-0.4487152,-0.09651184,15.229797,5.1330566,-52.0813,,-0.006734853,2.935787162,13.7625353,-0.017133645,-0.480533912,-0.105659191,15.24447041,5.270179317,-52.31452285
4.71E+12,-0.12414551,2.7041168,15.732666,-0.122283936,-0.3751068,-0.0657959,15.229797,5.1330566,-52.0813,,-0.065440182,2.819951981,14.74760065,-0.06970879,-0.427820356,-0.085727546,15.2371337,5.201617958,-52.19791143
4.71E+12,-0.12361145,2.6488953,16.415741,-0.122039795,-0.29022217,-0.030700684,15.229797,5.1330566,-52.0813,,-0.094525816,2.73442364,15.58167082,-0.095874293,-0.359021263,-0.058214115,15.23346535,5.167337279,-52.13960571
4.71E+12,-0.20976257,2.6187592,16.55017,-0.08239746,-0.17831421,0.012115479,15.229797,5.1330566,-52.0813,,-0.152144193,2.67659142,16.06592041,-0.089135876,-0.268667737,-0.023049318,15.23163118,5.15019694,-52.11045286
4.71E+12,-0.22769165,2.583313,16.30864,-0.013534546,-0.060562134,0.054870605,14.370728,4.763794,-52.200317,,-0.189917921,2.62995221,16.18728021,-0.051335211,-0.164614935,0.015910643,14.80117959,4.95699547,-52.15538493
4.71E+12,-0.17765808,2.6725464,15.804855,0.068344116,0.062423706,0.10140991,14.370728,4.763794,-52.200317,,-0.183788001,2.651249305,15.9960676,0.008504452,-0.051095615,0.058660277,14.58595379,4.860394735,-52.17785096
4.71E+12,-0.14888,2.7631378,15.049438,0.15304565,0.1804657,0.15019226,14.370728,4.763794,-52.200317,,-0.166334,2.707193553,15.5227528,0.080775051,0.064685043,0.104426268,14.4783409,4.812094367,-52.18908398
4.71E+12,-0.10020447,2.7658844,14.341858,0.22781372,0.28485107,0.19612122,14.370728,4.763794,-52.200317,,-0.133269235,2.736538976,14.9323054,0.154294386,0.174768056,0.150273744,14.42453445,4.787944184,-52.19470049
4.71E+12,-0.007568359,3.018631,13.437073,0.28001404,0.37139893,0.23136902,14.897156,4.244995,-51.88446,,-0.070418797,2.877584988,14.1846892,0.217154213,0.273083493,0.190821382,14.66084522,4.516469592,-52.03958025
4.71E+12,0.46746826,3.3320007,12.8582,0.31602478,0.45022583,0.2657013,14.897156,4.244995,-51.88446,,0.198524731,3.104792844,13.5214446,0.266589496,0.361654662,0.228261341,14.77900061,4.380732296,-51.96202012
4.71E+12,0.7170105,3.7025452,12.49791,0.31495667,0.50445557,0.29159546,14.897156,4.244995,-51.88446,,0.457767616,3.403669022,13.0096773,0.290773083,0.433055116,0.259928401,14.83807831,4.312863648,-51.92324006
4.71E+12,0.7223358,3.8614197,12.086945,0.2984314,0.53157043,0.2950287,15.229797,4.1030884,-51.745605,,0.590051708,3.632544361,12.54831115,0.294602242,0.482312773,0.27747855,15.03393765,4.207976024,-51.83442253
4.71E+12,0.6467438,3.8251953,11.568954,0.27902222,0.5213165,0.2725525,15.229797,4.1030884,-51.745605,,0.618397754,3.728869831,12.05863258,0.286812231,0.501814636,0.275015525,15.13186733,4.155532212,-51.79001377
4.71E+12,0.50053406,3.7012634,11.03302,0.26182556,0.48353577,0.23753357,15.229797,4.1030884,-51.745605,,0.559465907,3.715066615,11.54582629,0.274318895,0.492675203,0.256274548,15.18083216,4.129310306,-51.76780938
4.71E+12,0.23052979,3.7026672,10.613968,0.23266602,0.4352417,0.19969177,15.229797,4.1030884,-51.745605,,0.394997848,3.708866908,11.07989714,0.253492458,0.463958452,0.227983159,15.20531458,4.116199353,-51.75670719
4.71E+12,-0.008346558,3.672577,10.4655,0.17614746,0.37121582,0.15701294,15.229797,3.565979,-50.70038,,0.193325645,3.690721954,10.77269857,0.214819959,0.417587136,0.192498049,15.21755579,3.841089176,-51.2285436
4.71E+12,-0.2160492,3.5884705,10.583328,0.101242065,0.31536865,0.123703,15.229797,3.565979,-50.70038,,-0.011361777,3.639596227,10.67801329,0.158031012,0.366477893,0.158100525,15.2236764,3.703534088,-50.9644618
4.71E+12,-0.30101013,3.3471222,10.836258,0.004699707,0.2668152,0.100357056,15.229797,3.565979,-50.70038,,-0.156185954,3.493359213,10.75713564,0.081365359,0.316646546,0.12922879,15.2267367,3.634756544,-50.8324209
4.71E+12,-0.39344788,3.1513214,11.348892,-0.10520935,0.23623657,0.082336426,15.229797,3.565979,-50.70038,,-0.274816917,3.322340307,11.05301382,-0.011921995,0.276441558,0.105782608,15.22826685,3.600367772,-50.76640045
4.71E+12,-0.52153015,2.9326782,11.890152,-0.21670532,0.22361755,0.07281494,14.68811,2.8747559,-51.460266,,-0.398173533,3.127509253,11.47158291,-0.114313658,0.250029554,0.089298774,14.95818842,3.237561836,-51.11333322
4.71E+12,-0.6769104,2.65419,12.400345,-0.31448364,0.22782898,0.06954956,14.68811,2.8747559,-51.460266,,-0.537541967,2.890849627,11.93596396,-0.214398649,0.238929267,0.079424167,14.82314921,3.056158868,-51.28679961
4.71E+12,-0.77915955,2.3930511,12.655624,-0.40092468,0.2437439,0.07229614,14.68811,2.8747559,-51.460266,,-0.658350758,2.641950363,12.29579398,-0.307661664,0.241336584,0.075860154,14.75562961,2.965457384,-51.37353281
4.71E+12,-0.9169159,2.1529388,12.872803,-0.45210266,0.25534058,0.08140564,14.68811,2.8747559,-51.460266,,-0.787633329,2.397444582,12.58429849,-0.379882162,0.248338582,0.078632897,14.7218698,2.920106642,-51.4168994
4.71E+12,-1.0862122,1.8934631,13.029022,-0.47372437,0.25595093,0.09666443,14.543152,2.7297974,-51.745605,,-0.936922765,2.145453841,12.80666024,-0.426803266,0.252144756,0.087648663,14.6325109,2.824952021,-51.5812522
4.71E+12,-1.2723999,1.6395111,13.208176,-0.46780396,0.24110413,0.11949158,14.543152,2.7297974,-51.745605,,-1.104661332,1.89248247,13.00741812,-0.447303613,0.246624443,0.103570122,14.58783145,2.777374711,-51.6634286
4.71E+12,-1.3998566,1.3698273,13.549728,-0.43655396,0.20794678,0.14888,14.543152,2.7297974,-51.745605,,-1.252258966,1.631154885,13.27857306,-0.441928787,0.227285611,0.126225061,14.56549173,2.753586055,-51.7045168
4.71E+12,-1.3143616,1.2234344,13.86705,-0.37994385,0.16012573,0.18650818,14.543152,2.7297974,-51.745605,,-1.283310283,1.427294643,13.57281153,-0.410936318,0.193705671,0.15636662,14.55432186,2.741691728,-51.7250609
4.71E+12,-1.0809326,1.22966,13.960129,-0.2895813,0.104156494,0.23721313,15.559387,2.87323,-50.186157,,-1.182121442,1.328477321,13.76647027,-0.350258809,0.148931082,0.196789875,15.05685443,2.807460864,-50.95560895
4.71E+12,-0.8250427,1.2819672,13.803192,-0.18386841,0.06544495,0.29130554,15.559387,2.87323,-50.186157,,-1.003582071,1.305222261,13.78483113,-0.26706361,0.107188016,0.244047708,15.30812072,2.840345432,-50.57088298
4.71E+12,-0.66397095,1.3276367,13.351318,-0.06994629,0.05152893,0.33979797,15.559387,2.87323,-50.186157,,-0.83377651,1.31642948,13.56807457,-0.16850495,0.079358473,0.291922839,15.43375386,2.856787716,-50.37851999
4.71E+12,-0.56166077,1.4356842,12.688095,0.033416748,0.06808472,0.3764038,15.559387,2.87323,-50.186157,,-0.69771864,1.37605684,13.12808478,-0.067544101,0.073721597,0.334163319,15.49657043,2.865008858,-50.28233849
4.71E+12,-0.5050812,1.5122528,12.018768,0.11361694,0.11009216,0.40274048,16.036987,3.4851074,-52.468872,,-0.60139992,1.44415482,12.57342639,0.02303642,0.091906878,0.3684519,15.76677871,3.175058129,-51.37560525
4.71E+12,-0.45684814,1.5269012,11.2625885,0.17034912,0.16766357,0.42211914,16.036987,3.4851074,-52.468872,,-0.52912403,1.48552801,11.91800745,0.09669277,0.129785224,0.39528552,15.90188286,3.330082764,-51.92223862
4.71E+12,-0.3407898,1.6345215,10.496277,0.20265198,0.23449707,0.4363861,16.036987,3.4851074,-52.468872,,-0.434956915,1.560024755,11.20714222,0.149672375,0.182141147,0.41583581,15.96943493,3.407595082,-52.19555531
4.71E+12,-0.30421448,1.7735443,9.87059,0.2104187,0.2993164,0.44781494,16.036987,3.4851074,-52.468872,,-0.369585698,1.666784528,10.53886611,0.180045537,0.240728774,0.431825375,16.00321096,3.446351241,-52.33221366
4.71E+12,-0.31303406,1.851059,9.2938385,0.20529175,0.3497162,0.45281982,16.088867,3.5888672,-52.919006,,-0.341309879,1.758921764,9.916352306,0.192668644,0.295222487,0.442322597,16.04603898,3.517609221,-52.62560983
4.71E+12,-0.29315186,1.9106445,8.729736,0.19458008,0.37843323,0.45098877,16.088867,3.5888672,-52.919006,,-0.317230869,1.834783132,9.323044153,0.193624362,0.336827858,0.446655684,16.06745299,3.55323821,-52.77230791
4.71E+12,-0.24967957,1.9299774,8.176147,0.18209839,0.38485718,0.44670105,16.088867,3.5888672,-52.919006,,-0.28345522,1.882380266,8.749595576,0.187861376,0.360842519,0.446678367,16.07816,3.571052705,-52.84565696
4.71E+12,-0.23225403,1.9732513,7.7490234,0.16513062,0.3716278,0.44303894,16.088867,3.5888672,-52.919006,,-0.257854625,1.927815783,8.249309488,0.176495998,0.36623516,0.444858653,16.0835135,3.579959953,-52.88233148
4.71E+12,-0.19673157,2.0363464,7.2389526,0.14273071,0.34057617,0.43873596,16.088867,3.9001465,-51.08795,,-0.227293097,1.982081091,7.744131044,0.159613354,0.353405665,0.441797307,16.08619025,3.740053226,-51.98514074
4.71E+12,-0.12454224,2.0164032,6.7326508,0.117614746,0.3030243,0.431839,16.088867,3.9001465,-51.08795,,-0.175917669,1.999242146,7.238390922,0.13861405,0.328214982,0.436818153,16.08752862,3.820099863,-51.53654537
4.71E+12,-0.05935669,2.031189,6.4621735,0.08633423,0.26634216,0.42640686,16.088867,3.9001465,-51.08795,,-0.117637179,2.015215573,6.850282211,0.11247414,0.297278571,0.431612507,16.08819781,3.860123182,-51.31224768
4.71E+12,0.047714233,2.142868,6.315735,0.038848877,0.237854,0.4182434,16.088867,3.9001465,-51.08795,,-0.034961473,2.079041786,6.583008606,0.075661508,0.267566286,0.424927953,16.08853241,3.880134841,-51.20009884
4.71E+12,0.23513794,2.276657,6.264328,-0.021347046,0.22125244,0.40675354,17.816162,3.4591675,-51.060486,,0.100088233,2.177849393,6.423668303,0.027157231,0.244409363,0.415840747,16.9523472,3.66965117,-51.13029242
4.71E+12,0.33961487,2.2296448,6.4178925,-0.09579468,0.21522522,0.38934326,17.816162,3.4591675,-51.060486,,0.219851552,2.203747097,6.420780401,-0.034318724,0.229817291,0.402592003,17.3842546,3.564409335,-51.09538921
4.71E+12,0.30941772,2.085144,6.594681,-0.17214966,0.21466064,0.36386108,17.816162,3.4591675,-51.060486,,0.264634636,2.144445548,6.507730701,-0.103234192,0.222238966,0.383226542,17.6002083,3.511788418,-51.07793761
4.71E+12,0.17163086,1.9918518,6.7253265,-0.24333191,0.22314453,0.33059692,17.816162,3.4591675,-51.060486,,0.218132748,2.068148674,6.6165286,-0.173283051,0.222691748,0.356911731,17.70818515,3.485477959,-51.0692118
4.71E+12,0.06314087,1.8500061,6.8611298,-0.3052063,0.24534607,0.2992096,17.977905,3.4164429,-51.075745,,0.140636809,1.959077387,6.7388292,-0.239244676,0.234018909,0.328060665,17.84304508,3.450960429,-51.0724784
4.71E+12,-0.003570557,1.7113037,7.109329,-0.35908508,0.27766418,0.27308655,17.977905,3.4164429,-51.075745,,0.068533126,1.835190544,6.9240791,-0.299164878,0.255841544,0.300573608,17.91047504,3.433701665,-51.0741117
4.71E+12,-0.01234436,1.6535034,7.411377,-0.40063477,0.3111725,0.25546265,17.977905,3.4164429,-51.075745,,0.028094383,1.744346972,7.16772805,-0.349899824,0.283507022,0.278018129,17.94419002,3.425072282,-51.07492835
4.71E+12,-0.054641724,1.6042023,7.5823517,-0.4332428,0.34062195,0.23803711,17.977905,3.4164429,-51.075745,,-0.01327367,1.674274636,7.375039875,-0.391571312,0.312064486,0.258027619,17.96104751,3.420757591,-51.07533668
4.71E+12,-0.019699097,1.5992737,7.616989,-0.44352722,0.35255432,0.22155762,17.138672,3.5842896,-50.58441,,-0.016486384,1.636774168,7.496014438,-0.417549266,0.332309403,0.23979262,17.54985975,3.502523596,-50.82987334
4.71E+12,-0.10417175,1.5430603,7.476959,-0.42845154,0.3446045,0.20515442,17.138672,3.5842896,-50.58441,,-0.060329067,1.589917234,7.486486719,-0.423000403,0.338456952,0.22247352,17.34426588,3.543406598,-50.70714167
4.71E+12,-0.19006348,1.5097809,7.1088257,-0.40296936,0.3277588,0.18478394,17.138672,3.5842896,-50.58441,,-0.125196273,1.549849067,7.297656209,-0.412984881,0.333107876,0.20362873,17.24146894,3.563848099,-50.64577583
4.71E+12,-0.28677368,1.5044403,6.703293,-0.37876892,0.30714417,0.167099,17.138672,3.5842896,-50.58441,,-0.205984977,1.527144683,7.000474605,-0.395876901,0.320126023,0.185363865,17.19007047,3.574068849,-50.61509292
4.71E+12,-0.43006897,1.4109497,6.269562,-0.36331177,0.28097534,0.1538086,17.790222,3.251648,-50.90027,,-0.318026973,1.469047192,6.635018302,-0.379594335,0.300550681,0.169586232,17.49014623,3.412858425,-50.75768146
4.71E+12,-0.5737152,1.195816,6.1376495,-0.35569763,0.24298096,0.141922,17.790222,3.251648,-50.90027,,-0.445871087,1.332431596,6.386333901,-0.367645983,0.271765821,0.155754116,17.64018412,3.332253212,-50.82897573
4.71E+12,-0.66304016,1.0803528,6.3548737,-0.3624878,0.2002716,0.1355896,17.790222,3.251648,-50.90027,,-0.554455623,1.206392198,6.370603801,-0.365066891,0.23601871,0.145671858,17.71520306,3.291950606,-50.86462286
4.71E+12,-0.80259705,1.0057983,6.4392395,-0.37750244,0.1491394,0.13607788,17.790222,3.251648,-50.90027,,-0.678526337,1.106095249,6.40492165,-0.371284666,0.192579055,0.140874869,17.75271253,3.271799303,-50.88244643
4.71E+12,-0.7164917,1.0923309,6.421646,-0.3869934,0.10423279,0.14533997,17.790222,3.251648,-50.90027,,-0.697509018,1.099213074,6.413283825,-0.379139033,0.148405923,0.14310742,17.77146726,3.261723652,-50.89135822
4.71E+12,-0.66796875,1.1616516,6.3776245,-0.391922,0.06945801,0.1617279,17.790222,3.251648,-50.90027,,-0.682738884,1.130432337,6.395454163,-0.385530516,0.108931966,0.15241766,17.78084463,3.256685826,-50.89581411
4.71E+12,-0.5966797,1.1123657,6.3806763,-0.39167786,0.036605835,0.17770386,17.790222,3.251648,-50.90027,,-0.639709292,1.121399019,6.388065231,-0.388604188,0.072768901,0.16506076,17.78553332,3.254166913,-50.89804205
4.71E+12,-0.5424042,1.0566864,6.508499,-0.38537598,-0.005187988,0.1885376,17.788696,3.2791138,-50.897217,,-0.591056746,1.089042709,6.448282116,-0.386990084,0.033790456,0.17679918,17.78711466,3.266640356,-50.89762953
4.71E+12,-0.5155029,1.0181885,6.547943,-0.37580872,-0.040496826,0.19999695,17.788696,3.2791138,-50.897217,,-0.553279823,1.053615605,6.498112558,-0.381399402,-0.003353185,0.188398065,17.78790533,3.272877078,-50.89742326
4.71E+12,-0.55960083,0.9995575,6.374115,-0.36158752,-0.063568115,0.20913696,17.788696,3.2791138,-50.897217,,-0.556440327,1.026586552,6.436113779,-0.371493461,-0.03346065,0.198767512,17.78830066,3.275995439,-50.89732013
4.71E+12,-0.5324402,1.1882172,6.1754,-0.34742737,-0.069869995,0.22090149,17.788696,3.2791138,-50.897217,,-0.544440263,1.107401876,6.305756889,-0.359460416,-0.051665322,0.209834501,17.78849833,3.27755462,-50.89726857
4.71E+12,-0.45246887,1.244461,5.9793243,-0.33502197,-0.06619263,0.23574829,16.972351,5.1452637,-50.405884,,-0.498454567,1.175931438,6.142540595,-0.347241193,-0.058928976,0.222791396,17.38042467,4.21140916,-50.65157628
4.71E+12,-0.1867218,1.3270721,5.79364,-0.33117676,-0.057373047,0.24908447,16.972351,5.1452637,-50.405884,,-0.342588183,1.251501769,5.968090297,-0.339208976,-0.058151012,0.235937933,17.17638783,4.67833643,-50.52873014
4.71E+12,0.12034607,1.4738312,5.6763763,-0.34161377,-0.026977539,0.26124573,16.972351,5.1452637,-50.405884,,-0.111121057,1.362666485,5.822233299,-0.340411373,-0.042564275,0.248591831,17.07436942,4.911800065,-50.46730707
4.71E+12,0.39772034,1.5594177,5.687256,-0.36216736,0.012252808,0.2646637,16.972351,5.1452637,-50.405884,,0.143299642,1.461042092,5.754744649,-0.351289367,-0.015155734,0.256627766,17.02336021,5.028531882,-50.43659554
4.71E+12,0.4814148,1.5388031,5.898758,-0.38375854,0.048217773,0.25726318,17.634583,5.4763794,-50.405884,,0.312357221,1.499922596,5.826751325,-0.367523953,0.01653102,0.256945473,17.3289716,5.252455641,-50.42123977
4.71E+12,0.2723236,1.5016632,6.076889,-0.4012146,0.07548523,0.24021912,17.634583,5.4763794,-50.405884,,0.29234041,1.500792898,5.951820162,-0.384369277,0.046008125,0.248582296,17.4817773,5.364417521,-50.41356188
4.71E+12,0.060424805,1.5334473,6.2158813,-0.41151428,0.09786987,0.21820068,17.634583,5.4763794,-50.405884,,0.176382608,1.517120099,6.083850731,-0.397941778,0.071938997,0.233391488,17.55818015,5.42039846,-50.40972294
4.71E+12,-0.061920166,1.5264435,6.3115845,-0.40768433,0.11276245,0.19941711,17.634583,5.4763794,-50.405884,,0.057231221,1.5217818,6.197717616,-0.402813054,0.092350724,0.216404299,17.59638158,5.44838893,-50.40780347
4.71E+12,-0.18103027,1.4865265,6.437042,-0.3898468,0.11894226,0.188797,17.619324,5.3756714,-50.47455,,-0.061899525,1.50415415,6.317379808,-0.396329927,0.105646492,0.20260065,17.60785279,5.412030165,-50.44117674
4.71E+12,-0.30162048,1.4165039,6.763504,-0.3661499,0.11462402,0.18777466,17.619324,5.3756714,-50.47455,,-0.181760002,1.460329025,6.540441904,-0.381239914,0.110135256,0.195187655,17.61358839,5.393850783,-50.45786337
4.71E+12,-0.39413452,1.3851929,7.284561,-0.33709717,0.10166931,0.19137573,17.619324,5.3756714,-50.47455,,-0.287947261,1.422760962,6.912501452,-0.359168542,0.105902283,0.193281692,17.6164562,5.384761091,-50.46620668
4.71E+12,-0.43997192,1.3945465,7.702179,-0.29890442,0.0909729,0.19981384,17.619324,5.3756714,-50.47455,,-0.363959591,1.408653731,7.307340226,-0.329036481,0.098437591,0.196547766,17.6178901,5.380216246,-50.47037834
4.71E+12,-0.48147583,1.4513245,7.7938538,-0.24980164,0.08900452,0.21434021,17.532349,4.4158936,-51.27716,,-0.42271771,1.429989116,7.550597013,-0.28941906,0.093721056,0.205443988,17.57511955,4.898054923,-50.87376917
4.71E+12,-0.53956604,1.5586853,7.4780273,-0.18728638,0.09576416,0.23428345,17.532349,4.4158936,-51.27716,,-0.481141875,1.494337208,7.514312156,-0.23835272,0.094742608,0.219863719,17.55373427,4.656974261,-51.07546459
4.71E+12,-0.49531555,1.646698,7.039398,-0.11531067,0.108810425,0.25639343,17.532349,4.4158936,-51.27716,,-0.488228713,1.570517604,7.276855078,-0.176831695,0.101776516,0.238128575,17.54304164,4.536433931,-51.17631229
4.71E+12,-0.3189392,1.7000275,6.734543,-0.057861328,0.12654114,0.27890015,17.532349,4.4158936,-51.27716,,-0.403583956,1.635272552,7.005699039,-0.117346512,0.114158828,0.258514362,17.53769532,4.476163765,-51.22673615
4.71E+12,-0.17254639,1.7991943,6.4614105,-0.028121948,0.14665222,0.30166626,18.148804,5.6488037,-51.57776,,-0.288065173,1.717233426,6.73355477,-0.07273423,0.130405524,0.280090311,17.84324966,5.062483733,-51.40224807
4.71E+12,-0.094833374,1.9442596,6.2500305,-0.020019531,0.16247559,0.32032776,18.148804,5.6488037,-51.57776,,-0.191449274,1.830746513,6.491792635,-0.04637688,0.146440557,0.300209036,17.99602683,5.355643716,-51.49000404
4.71E+12,0.036727905,2.1128387,6.0145874,-0.026519775,0.1719513,0.3310852,18.148804,5.6488037,-51.57776,,-0.077360684,1.971792606,6.253190017,-0.036448328,0.159195929,0.315647118,18.07241541,5.502223708,-51.53388202
4.71E+12,0.2424469,2.3066254,5.787613,-0.041763306,0.16926575,0.33688354,18.148804,5.6488037,-51.57776,,0.082543108,2.139209003,6.020401509,-0.039105817,0.164230839,0.326265329,18.11060971,5.575513704,-51.55582101
4.71E+12,0.49002075,2.5322723,5.789612,-0.06422424,0.1499939,0.3343048,18.02063,5.673218,-51.50299,,0.286281929,2.335740652,5.905006754,-0.051665028,0.15711237,0.330285064,18.06561985,5.624365852,-51.5294055
4.71E+12,0.5916748,2.6398773,5.952179,-0.09664917,0.11502075,0.32118225,18.02063,5.673218,-51.50299,,0.438978364,2.487808976,5.928592877,-0.074157099,0.13606656,0.325733657,18.04312493,5.648791926,-51.51619775
4.71E+12,0.5306549,2.7161865,5.998398,-0.1365509,0.06619263,0.29493713,18.02063,5.673218,-51.50299,,0.484816632,2.601997738,5.963495439,-0.105354,0.101129595,0.310335394,18.03187746,5.661004963,-51.50959388
4.71E+12,0.5081024,2.6831818,6.193802,-0.18029785,0.013885498,0.25975037,18.02063,5.673218,-51.50299,,0.496459516,2.642589769,6.078648719,-0.142825925,0.057507546,0.285042882,18.02625373,5.667111482,-51.50629194
4.71E+12,0.4916687,2.5994873,6.3881683,-0.22709656,-0.032714844,0.22537231,17.260742,5.847168,-50.935364,,0.494064108,2.621038534,6.23340851,-0.184961242,0.012396351,0.255207596,17.64349787,5.757139741,-51.22082797
4.71E+12,0.5252533,2.5085144,6.771576,-0.28735352,-0.073532104,0.19215393,17.260742,5.847168,-50.935364,,0.509658704,2.564776467,6.502492255,-0.236157381,-0.030567876,0.223680763,17.45211993,5.80215387,-51.07809598
4.71E+12,0.48150635,2.431427,7.3404694,-0.35453796,-0.103378296,0.16194153,17.260742,5.847168,-50.935364,,0.495582527,2.498101734,6.921480827,-0.295347671,-0.066973086,0.192811146,17.35643097,5.824660935,-51.00672999
4.71E+12,0.37983704,2.2455444,8.268814,-0.4223175,-0.12289429,0.13330078,17.260742,5.847168,-50.935364,,0.437709784,2.371823067,7.595147414,-0.358832585,-0.094933688,0.163055963,17.30858648,5.835914468,-50.971047
4.71E+12,0.17427063,2.0477905,9.330399,-0.4827118,-0.13497925,0.10409546,17.118835,5.9921265,-50.238037,,0.305990207,2.209806783,8.462773207,-0.420772193,-0.114956469,0.133575712,17.21371074,5.914020484,-50.604542
4.71E+12,-0.072647095,1.9118042,10.210449,-0.52345276,-0.1376648,0.08097839,17.118835,5.9921265,-50.238037,,0.116671556,2.060805492,9.336611103,-0.472112476,-0.126310635,0.107277051,17.16627287,5.953073492,-50.4212895
4.71E+12,-0.34976196,1.7006989,10.895004,-0.5303955,-0.12823486,0.06832886,17.118835,5.9921265,-50.238037,,-0.116545202,1.880752196,10.11580755,-0.501253988,-0.127272747,0.087802955,17.14255394,5.972599996,-50.32966325
4.71E+12,-0.485672,1.6492004,11.179703,-0.4997406,-0.103500366,0.067108154,17.118835,5.9921265,-50.238037,,-0.301108601,1.764976298,10.64775528,-0.500497294,-0.115386557,0.077455555,17.13069447,5.982363248,-50.28385012
4.71E+12,-0.5084381,1.7884521,11.32901,-0.4396057,-0.06904602,0.081954956,17.228699,6.248474,-50.631714,,-0.404773351,1.776714199,10.98838264,-0.470051497,-0.092216288,0.079705255,17.17969673,6.115418624,-50.45778206
4.71E+12,-0.539032,1.8747711,11.400909,-0.35902405,-0.039031982,0.10644531,17.228699,6.248474,-50.631714,,-0.471902675,1.825742649,11.19464582,-0.414537774,-0.065624135,0.093075283,17.20419787,6.181946312,-50.54474803
4.71E+12,-0.60835266,1.8848267,11.356354,-0.2681427,-0.02508545,0.13044739,17.228699,6.248474,-50.631714,,-0.540127668,1.855284675,11.27549991,-0.341340237,-0.045354793,0.111761336,17.21644843,6.215210156,-50.58823102
4.71E+12,-0.50886536,1.983017,10.952164,-0.17304993,-0.024597168,0.15242004,17.228699,6.248474,-50.631714,,-0.524496514,1.919150837,11.11383195,-0.257195083,-0.03497598,0.132090688,17.22257372,6.231842078,-50.60997251
4.71E+12,-0.2846222,2.1622772,10.246201,-0.08784485,-0.03060913,0.169693,17.434692,7.0739746,-51.887512,,-0.404559357,2.040714019,10.68001648,-0.172519967,-0.032792555,0.150891844,17.32863286,6.652908339,-51.24874225
4.71E+12,-0.1026001,2.284546,9.542862,0.003067017,-0.0524292,0.18933105,17.434692,7.0739746,-51.887512,,-0.253579728,2.162630009,10.11143924,-0.084726475,-0.042610878,0.170111447,17.38166243,6.863441469,-51.56812713
4.71E+12,0.026519775,2.4517975,9.086487,0.06474304,-0.09082031,0.1995697,17.434692,7.0739746,-51.887512,,-0.113529977,2.307213755,9.598963119,-0.009991718,-0.066715594,0.184840574,17.40817721,6.968708035,-51.72781956
4.71E+12,0.23143005,2.5889587,8.725311,0.09291077,-0.15045166,0.19683838,16.775513,6.678772,-51.24359,,0.058950037,2.448086227,9.16213706,0.041459526,-0.108583627,0.190839477,17.09184511,6.823740017,-51.48570478
4.71E+12,0.48283386,2.7378693,8.490616,0.088638306,-0.22070313,0.1859436,16.775513,6.678772,-51.24359,,0.270891948,2.592977764,8.82637653,0.065048916,-0.164643378,0.188391538,16.93367905,6.751256009,-51.36464739
4.71E+12,0.6296387,2.8650208,8.506165,0.04827881,-0.2841797,0.16319275,16.775513,6.678772,-51.24359,,0.450265324,2.728999282,8.666270765,0.056663863,-0.224411539,0.175792144,16.85459603,6.715014004,-51.3041187
4.71E+12,0.8622894,2.9216003,8.984802,-0.027755737,-0.3293152,0.13294983,16.775513,6.678772,-51.24359,,0.656277362,2.825299791,8.825536382,0.014454063,-0.27686337,0.154370987,16.81505451,6.696893002,-51.27385435
4.71E+12,0.98350525,2.890747,9.559326,-0.15414429,-0.3475647,0.087509155,16.775513,6.390381,-51.148987,,0.819891306,2.858023395,9.192431191,-0.069845113,-0.312214035,0.120940071,16.79528376,6.543637001,-51.21142067
4.71E+12,1.0897522,2.7440948,10.309143,-0.29264832,-0.33955383,0.032470703,16.775513,6.390381,-51.148987,,0.954821753,2.801059098,9.750787096,-0.181246717,-0.325883932,0.076705387,16.78539838,6.467009001,-51.18020384
4.71E+12,1.166565,2.5600739,11.150772,-0.43063354,-0.31243896,-0.025680542,16.775513,6.390381,-51.148987,,1.060693377,2.680566499,10.45077955,-0.305940128,-0.319161446,0.025512423,16.78045569,6.428695,-51.16459542
4.71E+12,1.1399841,2.2778625,11.867401,-0.5552521,-0.27519226,-0.08546448,16.775513,6.390381,-51.148987,,1.100338738,2.479214499,11.15909027,-0.430596114,-0.297176853,-0.029976029,16.77798434,6.409538,-51.15679121
4.71E+12,0.91244507,1.8658905,12.41449,-0.65371704,-0.2288208,-0.14682007,17.027283,6.5078735,-50.660706,,1.006391904,2.1725525,11.78679014,-0.542156577,-0.262998827,-0.088398049,16.90263367,6.45870575,-50.9087486
4.71E+12,0.4664154,1.478302,13.049515,-0.7221832,-0.18016052,-0.20146179,17.027283,6.5078735,-50.660706,,0.736403652,1.82542725,12.41815257,-0.632169889,-0.221579673,-0.14492992,16.96495834,6.483289625,-50.7847273
4.71E+12,0.018997192,1.2419434,13.922104,-0.77230835,-0.13186646,-0.25091553,17.027283,6.5078735,-50.660706,,0.377700422,1.533685325,13.17012828,-0.702239119,-0.176723067,-0.197922725,16.99612067,6.495581563,-50.72271665
4.71E+12,-0.3619995,0.92559814,14.989716,-0.79519653,-0.09927368,-0.28230286,17.027283,6.5078735,-50.660706,,0.007850461,1.229641732,14.07992214,-0.748717825,-0.137998373,-0.240112792,17.01170183,6.501727531,-50.69171133
4.71E+12,-0.6349182,0.60672,15.866135,-0.7879791,-0.07595825,-0.29309082,17.634583,8.566284,-50.07019,,-0.313533869,0.918180866,14.97302857,-0.768348462,-0.106978312,-0.266601806,17.32314242,7.534005766,-50.38095066
4.71E+12,-0.8279419,0.41348267,16.23439,-0.73703,-0.055496216,-0.28157043,17.634583,8.566284,-50.07019,,-0.570737885,0.665831768,15.60370929,-0.752689231,-0.081237264,-0.274086118,17.47886271,8.050144883,-50.22557033
4.71E+12,-0.9219208,0.28884888,15.959045,-0.6430359,-0.033081055,-0.25473022,17.634583,8.566284,-50.07019,,-0.746329342,0.477340324,15.78137714,-0.697862566,-0.057159159,-0.264408169,17.55672285,8.308214441,-50.14788017
4.71E+12,-0.8145447,0.3632965,15.2152405,-0.51794434,-0.009674072,-0.21430969,17.634583,8.566284,-50.07019,,-0.780437021,0.420318412,15.49830882,-0.607903453,-0.033416616,-0.23935893,17.59565293,8.437249221,-50.10903508
4.71E+12,-0.58084106,0.5193176,14.271988,-0.37623596,0.012298584,-0.15966797,16.984558,8.035278,-51.04828,,-0.680639041,0.469818006,14.88514841,-0.492069706,-0.010559016,-0.19951345,17.29010546,8.23626361,-50.57865754
4.71E+12,-0.23823547,0.6909332,13.361145,-0.26431274,0.031936646,-0.10809326,16.984558,8.035278,-51.04828,,-0.459437255,0.580375603,14.12314671,-0.378191223,0.010688815,-0.153803355,17.13733173,8.135770805,-50.81346877
4.71E+12,0.13772583,0.871521,12.680695,-0.19030762,0.0471344,-0.06590271,16.984558,8.035278,-51.04828,,-0.160855713,0.725948302,13.40192085,-0.284249422,0.028911608,-0.109853032,17.06094487,8.085524403,-50.93087439
4.71E+12,0.54756165,1.0537262,12.140228,-0.15611267,0.05126953,-0.0382843,16.984558,8.035278,-51.04828,,0.193352969,0.889837251,12.77107443,-0.220181046,0.040090569,-0.074068666,17.02275143,8.060401201,-50.98957719
4.71E+12,1.0521088,1.2974854,11.692322,-0.1544342,0.04714966,-0.025817871,15.867615,8.006287,-51.956177,,0.622730884,1.093661325,12.23169821,-0.187307623,0.043620114,-0.049943269,16.44518322,8.033344101,-51.4728771
4.71E+12,1.5402222,1.5523834,11.420151,-0.1763916,0.03590393,-0.031921387,15.867615,8.006287,-51.956177,,1.081476542,1.323022363,11.82592461,-0.181849611,0.039762022,-0.040932328,16.15639911,8.01981555,-51.71452705
4.71E+12,1.9000397,1.7315521,11.281296,-0.21566772,0.01423645,-0.06352234,15.867615,8.006287,-51.956177,,1.490758121,1.527287231,11.5536103,-0.198758666,0.026999236,-0.052227334,16.01200705,8.013051275,-51.83535202
4.71E+12,2.0375824,1.7687073,11.336014,-0.26786804,-0.008422852,-0.11769104,15.867615,8.006287,-51.956177,,1.764170261,1.647997266,11.44481215,-0.233313353,0.009288192,-0.084959187,15.93981103,8.009669138,-51.89576451
4.71E+12,1.9462891,1.6302948,11.6527405,-0.3368988,-0.02218628,-0.19108582,16.088867,9.768677,-50.238037,,1.85522968,1.639146033,11.54877633,-0.285106076,-0.006449044,-0.138022503,16.01433901,8.889173069,-51.06690076
4.71E+12,1.7223969,1.4615784,12.024597,-0.4192505,-0.024353027,-0.27648926,16.088867,9.768677,-50.238037,,1.78881329,1.550362216,11.78668666,-0.352178288,-0.015401035,-0.207255882,16.05160301,9.328925034,-50.65246888
4.71E+12,1.4479828,1.2924347,12.259338,-0.5016937,-0.009628296,-0.35786438,16.088867,9.768677,-50.238037,,1.618398045,1.421398458,12.02301233,-0.426935994,-0.012514666,-0.282560131,16.070235,9.548801017,-50.44525294
4.71E+12,1.2002869,0.9983368,12.484848,-0.5853119,0.024887085,-0.43478394,16.088867,9.768677,-50.238037,,1.409342473,1.209867629,12.25393017,-0.506123947,0.00618621,-0.358672035,16.079551,9.658739009,-50.34164497
4.71E+12,0.85112,0.5901489,12.794586,-0.6525421,0.056884766,-0.49957275,16.578674,9.416199,-50.852966,,1.130231236,0.900008265,12.52425808,-0.579333024,0.031535488,-0.429122393,16.3291125,9.537469004,-50.59730548
4.71E+12,0.40151978,0.17501831,13.195389,-0.6909485,0.06286621,-0.5503235,16.578674,9.416199,-50.852966,,0.765875508,0.537513287,12.85982354,-0.635140762,0.047200849,-0.489722946,16.45389325,9.476834002,-50.72513574
4.71E+12,-0.09637451,-0.16177368,13.580444,-0.69799805,0.039535522,-0.58099365,16.578674,9.416199,-50.852966,,0.334750499,0.187869804,13.22013377,-0.666569406,0.043368185,-0.535358298,16.51628363,9.446516501,-50.78905087
4.71E+12,-0.40434265,-0.387146,13.93338,-0.6697235,-0.005462647,-0.590683,16.578674,9.416199,-50.852966,,-0.034796075,-0.099638098,13.57675689,-0.668146453,0.018952769,-0.563020649,16.54747881,9.431357751,-50.82100844
4.71E+12,-0.45643616,-0.5006714,14.1701355,-0.6132202,-0.06274414,-0.57743835,17.144775,9.489441,-51.745605,,-0.245616118,-0.300154749,13.87344619,-0.640683326,-0.021895685,-0.5702295,16.84612691,9.460399375,-51.28330672
4.71E+12,-0.37332153,-0.49778748,14.198364,-0.52189636,-0.1335144,-0.5420685,17.144775,9.489441,-51.745605,,-0.309468824,-0.398971115,14.0359051,-0.581289843,-0.077705043,-0.556149,16.99545095,9.474920188,-51.51445586
4.71E+12,-0.23457336,-0.41049194,13.81604,-0.41238403,-0.20185852,-0.4970398,17.144775,9.489441,-51.745605,,-0.272021092,-0.404731527,13.92597255,-0.496836937,-0.139781781,-0.5265944,17.07011298,9.482180594,-51.63003043
4.71E+12,-0.081710815,-0.2614441,13.211533,-0.30174255,-0.2482605,-0.44847107,17.144775,9.489441,-51.745605,,-0.176865953,-0.333087814,13.56875277,-0.399289743,-0.194021141,-0.487532735,17.10744399,9.485810797,-51.68781771
4.71E+12,0.29907227,-0.17622375,12.645187,-0.21118164,-0.26167297,-0.40649414,16.946411,10.284424,-51.745605,,0.061103158,-0.254655782,13.10696989,-0.305235692,-0.227847055,-0.447013437,17.02692749,9.885117398,-51.71671136
4.71E+12,0.58229065,-0.17092896,12.548752,-0.15490723,-0.2479248,-0.37271118,16.946411,10.284424,-51.745605,,0.321696904,-0.212792371,12.82786094,-0.230071461,-0.237885928,-0.409862309,16.98666925,10.0847707,-51.73115818
4.71E+12,0.719223,-0.044403076,12.306168,-0.13417053,-0.21903992,-0.35165405,16.946411,10.284424,-51.745605,,0.520459952,-0.128597723,12.56701447,-0.182120995,-0.228462924,-0.380758179,16.96654012,10.18459735,-51.73838159
4.71E+12,0.80223083,0.12275696,11.779419,-0.1274414,-0.16911316,-0.34051514,16.946411,10.284424,-51.745605,,0.661345391,-0.002920382,12.17321674,-0.154781198,-0.198788042,-0.36063666,16.95647556,10.23451067,-51.74199329
4.71E+12,0.94148254,0.19216919,11.142609,-0.12904358,-0.09440613,-0.33972168,16.539001,11.01532,-51.664734,,0.801413966,0.094624404,11.65791287,-0.141912389,-0.146597086,-0.35017917,16.74773828,10.62491534,-51.70336365
4.71E+12,1.0199585,0.17616272,10.592087,-0.1434784,-0.00289917,-0.34379578,16.539001,11.01532,-51.664734,,0.910686233,0.135393562,11.12499993,-0.142695394,-0.074748128,-0.346987475,16.64336964,10.82011767,-51.68404882
4.71E+12,0.9689789,0.16867065,10.122726,-0.17033386,0.08279419,-0.35551453,16.539001,11.01532,-51.664734,,0.939832566,0.152032106,10.62386297,-0.156514627,0.004023031,-0.351251002,16.59118532,10.91771883,-51.67439141
4.71E+12,0.8922272,0.14382935,9.743515,-0.20606995,0.15377808,-0.3685608,16.539001,11.01532,-51.664734,,0.916029883,0.147930728,10.18368898,-0.181292289,0.078900556,-0.359905901,16.56509316,10.96651942,-51.66956271
4.71E+12,0.8517151,0.23376465,9.370438,-0.24557495,0.210495,-0.3837433,15.588379,11.660767,-51.90277,,0.883872492,0.190847689,9.777063492,-0.213433619,0.144697778,-0.371824601,16.07673608,11.31364321,-51.78616635
4.71E+12,0.71829224,0.24681091,9.197647,-0.28883362,0.25863647,-0.3977661,15.588379,11.660767,-51.90277,,0.801082366,0.2188293,9.487355246,-0.25113362,0.201667124,-0.38479535,15.83255754,11.4872051,-51.84446818
4.71E+12,0.5019989,0.17062378,8.988235,-0.3251648,0.28701782,-0.40615845,15.588379,11.660767,-51.90277,,0.651540633,0.19472654,9.237795123,-0.28814921,0.244342472,-0.3954769,15.71046827,11.57398605,-51.87361909
4.71E+12,0.3839264,0.11312866,8.716202,-0.3481903,0.29815674,-0.4087677,15.058899,11.485291,-52.249146,,0.517733516,0.1539276,8.976998561,-0.318169755,0.271249606,-0.4021223,15.38468364,11.52963853,-52.06138254
4.71E+12,0.2520752,0.07623291,8.662338,-0.36106873,0.29904175,-0.40344238,15.058899,11.485291,-52.249146,,0.384904358,0.115080255,8.819668281,-0.339619242,0.285145678,-0.40278234,15.22179132,11.50746476,-52.15526427
4.71E+12,0.08418274,-0.002685547,8.664383,-0.3708191,0.28804016,-0.38972473,15.058899,11.485291,-52.249146,,0.234543549,0.056197354,8.74202564,-0.355219171,0.286592919,-0.396253535,15.14034516,11.49637788,-52.20220514
4.71E+12,-0.027542114,0.049987793,8.569672,-0.37245178,0.26864624,-0.3705902,15.058899,11.485291,-52.249146,,0.103500718,0.053092574,8.65584882,-0.363835476,0.277619579,-0.383421868,15.09962208,11.49083444,-52.22567557
4.71E+12,-0.08746338,0.044143677,8.427307,-0.3671112,0.24839783,-0.3386383,16.348267,11.853027,-50.98877,,0.008018669,0.048618125,8.54157791,-0.365473338,0.263008705,-0.361030084,15.72394454,11.67193072,-51.60722278
4.71E+12,-0.097335815,0.06465149,8.266357,-0.35321045,0.2334137,-0.30026245,16.348267,11.853027,-50.98877,,-0.044658573,0.056634808,8.403967455,-0.359341894,0.248211202,-0.330646267,16.03610577,11.76247886,-51.29799639
4.71E+12,0.005401611,0.09989929,8.241837,-0.3407135,0.2193451,-0.25909424,16.348267,11.853027,-50.98877,,-0.019628481,0.078267049,8.322902228,-0.350027697,0.233778151,-0.294870253,16.19218638,11.80775293,-51.1433832
4.71E+12,0.19247437,0.22521973,8.386948,-0.33035278,0.2052002,-0.21697998,16.348267,11.853027,-50.98877,,0.086422945,0.151743389,8.354925114,-0.340190238,0.219489176,-0.255925117,16.27022669,11.83038997,-51.0660766
4.71E+12,0.5349121,0.45169067,8.58107,-0.31730652,0.18603516,-0.1789856,17.367554,11.889648,-50.177002,,0.310667522,0.30171703,8.467997557,-0.328748379,0.202762168,-0.217455358,16.81889035,11.86001898,-50.6215393
4.71E+12,0.88690186,0.74967957,8.52478,-0.29701233,0.159729,-0.14936829,17.367554,11.889648,-50.177002,,0.598784691,0.5256983,8.496388778,-0.312880355,0.181245584,-0.183411824,17.09322217,11.87483349,-50.39927065
4.71E+12,0.9386444,0.8581848,8.313004,-0.25628662,0.12294006,-0.13421631,17.367554,11.889648,-50.177002,,0.768714546,0.69194155,8.404696389,-0.284583487,0.152092822,-0.158814067,17.23038809,11.88224075,-50.28813632
4.71E+12,0.8548126,0.86486816,7.92659,-0.20602417,0.078933716,-0.13989258,17.367554,11.889648,-50.177002,,0.811763573,0.778404855,8.165643195,-0.245303829,0.115513269,-0.149353324,17.29897104,11.88594437,-50.23256916
4.71E+12,0.8493347,0.89538574,7.5898438,-0.15922546,0.032058716,-0.15446472,17.289734,11.657715,-50.405884,,0.830549136,0.836895297,7.877743497,-0.202264644,0.073785992,-0.151909022,17.29435252,11.77182969,-50.31922658
4.71E+12,0.878067,0.9061279,7.299942,-0.12315369,-0.018081665,-0.17036438,17.289734,11.657715,-50.405884,,0.854308068,0.871511599,7.588842749,-0.162709167,0.027852164,-0.161136701,17.29204326,11.71477234,-50.36255529
4.71E+12,0.82440186,0.85858154,7.106888,-0.10101318,-0.074539185,-0.18270874,17.289734,11.657715,-50.405884,,0.839354964,0.865046569,7.347865374,-0.131861174,-0.023343511,-0.17192272,17.29088863,11.68624367,-50.38421965
4.71E+12,0.810318,0.82606506,7.096451,-0.095199585,-0.13049316,-0.1933136,17.289734,11.657715,-50.405884,,0.824836482,0.845555815,7.222158187,-0.113530379,-0.076918335,-0.18261816,17.29031132,11.67197934,-50.39505182
4.71E+12,0.8840637,0.86650085,7.432358,-0.114593506,-0.1695404,-0.20150757,17.601013,13.21106,-50.708008,,0.854450091,0.856028332,7.327258094,-0.114061943,-0.123229368,-0.192062865,17.44566216,12.44151967,-50.55152991
4.71E+12,0.92922974,0.9202423,7.800415,-0.15890503,-0.17869568,-0.20756531,17.601013,13.21106,-50.708008,,0.891839916,0.888135316,7.563836547,-0.136483486,-0.150962524,-0.199814088,17.52333758,12.82628983,-50.62976896
4.71E+12,0.9487457,0.9220581,8.041092,-0.21549988,-0.15579224,-0.2135315,17.601013,13.21106,-50.708008,,0.920292808,0.905096708,7.802464273,-0.175991683,-0.153377382,-0.206672794,17.56217529,13.01867492,-50.66888848
4.71E+12,0.92718506,0.9158478,8.155731,-0.27122498,-0.105773926,-0.22009277,17.601013,13.21106,-50.708008,,0.923738934,0.910472254,7.979097637,-0.223608332,-0.129575654,-0.213382782,17.58159414,13.11486746,-50.68844824
